sample_idx,subject_id,stride_num,phase,time,pelvis_acc_x,pelvis_acc_y,pelvis_acc_z,tibia_left_acc_x,tibia_left_acc_y,tibia_left_acc_z,tibia_right_acc_x,tibia_right_acc_y,tibia_right_acc_z,grf_ml,grf_ap,grf_vertical,velocity,body_mass,velocity_condition,stride_freq_condition
0,1,0,stance,0.0,-0.07311395352421585,-0.16366985231508846,-5.4737822922174555,0.11594040384650245,0.5285199007416119,-2.2897072341063294,0.22284071940711261,-0.12016636611638687,-2.994656506698322,-0.009389487718699043,-8.821899632798114e-05,0.00014613280300554665,2.78,82.39249767769658,10kmh,low
1,1,0,stance,0.004230436101688532,-0.1500443910444705,-0.060319700059654716,-4.86410693812366,-0.2066059897151316,-0.8824210724363649,-1.1651965474292205,-0.10013715319229614,-0.4568331602456068,-2.2999911223435583,0.011017468048518381,-0.0003888034180438083,0.0006097297264424553,2.78,82.39249767769658,10kmh,low
2,1,0,stance,0.008460872203377065,-0.0403127062296243,-0.5558429676758998,-4.452269717594175,-0.18755059935370283,-0.6044330735460492,-2.3839657237968463,-0.06516765540799983,-0.3011894824973281,-4.616423603920184,-0.008216183600372712,-0.0016314751800664796,0.0024541046602570625,2.78,82.39249767769658,10kmh,low
3,1,0,stance,0.012691308305065596,0.11253253656447607,-0.6241402601777231,-4.5192789474863675,0.08932184500969668,-1.0674865045397317,-0.03044629676739108,0.40967836361159465,0.32982519725319664,-2.8388639027103224,-0.004808765879901388,-0.006099696184974689,0.00903072788496971,2.78,82.39249767769658,10kmh,low
4,1,0,stance,0.01692174440675413,0.19901464487699994,-0.5330877219123269,-3.145170851014317,-0.17914127206511082,-0.27449425681344397,-1.4236263569373797,-0.030351084289066327,0.11066775422102532,-2.0823029813060048,0.018405516260066337,-0.017812288429047533,0.027502315092742428,2.78,82.39249767769658,10kmh,low
5,1,0,stance,0.021152180508442663,-0.02354463330202823,-0.4904440783760324,-2.644757542565154,0.10218679904240653,0.07254616204754322,-2.281514336102349,0.3770493309985417,-0.7750025882497135,-2.5744835552637744,-0.01107657033649199,-0.03647107108186008,0.06561920399614676,2.78,82.39249767769658,10kmh,low
6,1,0,stance,0.025382616610131192,0.27416076193867933,-0.44487550861791336,-2.236699289049791,-0.024972945954089387,0.31294711275783255,-2.1046991216090265,0.21204638744931323,-0.38856526057556856,-0.07722127011446567,0.005112626122825742,-0.05583988446612914,0.1354368255582108,2.78,82.39249767769658,10kmh,low
7,1,0,stance,0.029613052711819726,0.3754437714616939,-0.24057423060038524,-1.8121756294288267,0.1653156242848562,-0.5412440520619624,-0.524627475767095,0.11840413219868867,-0.2025978805859554,-1.9590878206699585,0.03771964848875136,-0.07368647327622961,0.2682826117886979,2.78,82.39249767769658,10kmh,low
8,1,0,stance,0.03384348881350826,0.26171767705852944,-0.4823549434923162,-1.8639031838836295,0.42580558328153284,0.09768861170732668,-0.5809730648938136,0.4061675259945402,-1.5513218016390051,-0.7434093409221634,0.03612430336837921,-0.09131232939326188,0.5087870250693795,2.78,82.39249767769658,10kmh,low
9,1,0,stance,0.03807392491519679,0.5078298789263418,-0.8238031742827908,-0.8514066381170196,0.5854652552995763,-1.5519117260628366,0.6169280533496964,0.7175380398347487,-0.5901809007654233,0.17948311574519596,0.0690839416671132,-0.10981918921449933,0.8850650036403566,2.78,82.39249767769658,10kmh,low
10,1,0,stance,0.042304361016885325,0.13563599690440467,-0.8743635955876885,-0.34083148238346717,0.2562331100511098,-1.8684988165414969,0.9027090116328842,0.501927142060179,-1.348119476336843,1.628735760002312,0.050455024247252046,-0.12956263976349638,1.3666365327123051,2.78,82.39249767769658,10kmh,low
11,1,0,stance,0.046534797118573855,0.08897771029105342,-1.2037435407503927,-0.1619297907230716,0.6037265051713598,-1.2084209844086582,0.875466765093838,-0.07866212564231623,-0.8953478006637692,-0.14680816379808703,0.045710507402111245,-0.1504392373802687,1.8411260578910291,2.78,82.39249767769658,10kmh,low
12,1,0,stance,0.050765233220262385,0.03121686853217842,-1.0378571493170439,0.4890686420792344,0.4724664950864629,-1.1585217139867505,0.5451354348612856,0.5609480330302201,-1.7321840167276625,2.052603537528809,0.10815965151979573,-0.1720889957258415,2.149707078874638,2.78,82.39249767769658,10kmh,low
13,1,0,stance,0.05499566932195092,0.5429722555860701,-1.1809934454026672,1.0163506639350322,0.6948335077895667,-1.5388009049856228,0.13485587255263654,0.4789699471656246,-2.424894581270836,1.2786660868317254,0.07876068240184955,-0.19399254981378394,2.1775267406230823,2.78,82.39249767769658,10kmh,low
14,1,0,stance,0.05922610542363945,0.4352958005676186,-1.098086917879932,1.9180123032187775,0.7565296246011145,-2.725153297707067,0.8695600465568756,0.589645952834007,-2.50520346662871,0.46831477232117813,0.08857642494670433,-0.21552398670834974,1.9317993408240042,2.78,82.39249767769658,10kmh,low
15,1,0,stance,0.06345654152532798,0.3452861655053024,-1.4487268290172606,1.1500750809339335,0.34960350808107665,-1.896620306173913,1.6537064263171901,0.5821581422972437,-1.8280178130868279,1.3579849362720389,0.06218000843302378,-0.2359913718676757,1.536981187571746,2.78,82.39249767769658,10kmh,low
16,1,0,stance,0.06768697762701652,0.40989975302677345,-1.1673819535627936,1.2251236745761904,0.6495492485017071,-2.6509393833567776,0.9027287052320766,0.6124412431744911,-1.8688433822436104,0.8914531688145262,0.08271676029433199,-0.25467694101737404,1.1515548576977424,2.78,82.39249767769658,10kmh,low
17,1,0,stance,0.07191741372870505,0.2110572041494174,-0.9605019915434159,1.0603989185300262,0.3616712930307085,-1.791027615979039,-0.4815847349306841,0.3406135974495089,-2.5780222029462627,0.0025566912342108727,0.09821606045245876,-0.2708797006108637,0.8808509922680848,2.78,82.39249767769658,10kmh,low
18,1,0,stance,0.07614784983039358,0.7563222995900449,-1.4076573517051356,0.1292530873977601,0.7448028159184358,-2.0452123272605505,0.3220744046341846,0.6088455238682013,-1.9092152209202877,0.24454027398831227,0.07482103700549156,-0.28395915523814663,0.7484988914012088,2.78,82.39249767769658,10kmh,low
19,1,0,stance,0.08037828593208211,0.41594564147353724,-1.3064274897523376,1.07548492153395,0.6860558002617038,-2.77236390161302,0.28398854471425966,0.8849277706934068,-3.1331840395838224,-0.2939846877286881,0.10663773618355192,-0.2933771672336063,0.7239196566064569,2.78,82.39249767769658,10kmh,low
20,1,0,stance,0.08460872203377065,0.41753546205873404,-1.249785269074275,1.1431857186709677,0.47242103632734833,-2.6014010274537385,-0.7839883452705522,0.7430494034398681,-2.37750746810905,-0.03595725918126633,0.08782609457654117,-0.2987343996923281,0.7635601261014834,2.78,82.39249767769658,10kmh,low
21,1,0,stance,0.08883915813545917,0.5119701308840054,-1.526832655879561,2.403698739926688,0.9087681134128229,-2.8824211550329863,-0.03753565548610549,0.916710988342256,-2.958322493969739,0.34376852094553356,0.0941482171186254,-0.2997979605107684,0.8348281029385038,2.78,82.39249767769658,10kmh,low
22,1,0,stance,0.09306959423714771,0.47462186601822576,-1.3633157972505336,1.1755371404951176,0.42490358246584636,-2.3584093044909418,-0.06357677297342591,0.8094700437387622,-2.6529878097554356,1.0822793003010882,0.08751849499075814,-0.2965175529885774,0.9200522413641019,2.78,82.39249767769658,10kmh,low
23,1,0,stance,0.09730003033883625,0.4327941214150778,-1.3976752045085166,1.5647473164320944,0.5790395585009374,-1.790724520777379,-0.8545140389472055,1.0459499023989365,-2.244596345369791,-0.925647939694375,0.1355984975377643,-0.2890285016600405,1.0114417744080295,2.78,82.39249767769658,10kmh,low
24,1,0,stance,0.10153046644052477,0.2747752948546185,-1.3468255680682748,1.5801500073083972,0.2750106626981096,-2.671791986380127,0.4299711184861401,0.6466265282144238,-2.6091356458543316,1.7614056292171278,0.09671879366231041,-0.2776413052003511,1.1057520020915634,2.78,82.39249767769658,10kmh,low
25,1,0,stance,0.1057609025422133,0.4556518454396591,-1.524299899446362,1.2339702571384596,0.6577018901429932,-1.8105778994554855,0.7747709525850697,0.09095916892758549,-2.2548789293293203,-1.1098832918329824,0.07371478117177566,-0.26281869995086743,1.2012891047570455,2.78,82.39249767769658,10kmh,low
26,1,0,stance,0.10999133864390184,0.6563571602612648,-1.2747074999193266,2.6417444765303015,0.4260386228077737,-2.189006562430309,1.3788041030179004,0.853550515714991,-1.4207313486368682,0.4526768493597551,0.10865675854548487,-0.2451424252349756,1.2967242328061501,2.78,82.39249767769658,10kmh,low
27,1,0,stance,0.11422177474559038,0.5626309573613598,-1.0968414083077769,2.7220114874707684,0.882290958525553,-2.164377463048516,1.5772654895150322,0.49551433482023965,-2.056386981678918,1.2281518553522872,0.06459770103822075,-0.22527281433707233,1.3907450827742402,2.78,82.39249767769658,10kmh,low
28,1,0,stance,0.1184522108472789,0.5843246346806713,-0.7906113606752063,3.0324508489447584,0.09405023172900939,-1.6537607187769097,-0.027321453827526376,0.6824272929987832,-1.1823994827670599,1.2166744729415662,0.08949069225279452,-0.20390488516814867,1.4819917311438697,2.78,82.39249767769658,10kmh,low
29,1,0,stance,0.12268264694896744,0.25108994760187303,-0.8380822768051898,2.479264672103483,0.712048752428613,-1.943796783228564,0.5128402001333271,-0.03125248359897387,-1.991029049347686,0.7491843402042238,0.041930196644255645,-0.18172472247946952,1.569069543943372,2.78,82.39249767769658,10kmh,low
30,1,0,stance,0.12691308305065596,0.15978681246060827,-0.4574791828045105,3.929319355462129,0.3954546681451426,-1.5275576019586374,1.7984329696357009,0.07243616624242238,-0.9858308603274049,1.2560648314612497,0.04990538828374661,-0.15936964185589272,1.6505806591744032,2.78,82.39249767769658,10kmh,low
31,1,0,stance,0.1311435191523445,0.2679663404415619,-1.0997808733241143,2.8088884359845014,0.49300183374892126,-1.6772147047821373,1.9749210245627498,0.7804683250497453,-0.357491448158763,1.2198308603844685,0.07531383598609573,-0.1373949743231031,1.7251603043740833,2.78,82.39249767769658,10kmh,low
32,1,0,stance,0.13537395525403303,0.2720678114318533,-0.5972166403305059,4.064508880468307,0.4175567384557331,0.07003710969454591,2.131647199507313,0.5438977216938068,-2.1481477068272934,1.3033378670696183,0.08064460611008746,-0.11624942109628551,1.7915144130812553,2.78,82.39249767769658,10kmh,low
33,1,0,stance,0.13960439135572156,0.40310987002538456,-0.6728290412624268,5.099083790218829,0.5353164701914674,-0.7378161888037725,4.766723551409848,0.6059076159466059,-1.1538955925248753,2.5143765061845755,0.06342397576866897,-0.09625993435138083,1.8484567853496459,2.78,82.39249767769658,10kmh,low
34,1,0,stance,0.1438348274574101,-0.04106401468941104,-0.07135061377404306,3.7058789365488534,0.3439762430461186,-0.9590725049668067,2.411477462755964,0.360464512684946,-0.3206736873802439,2.251071194209874,0.05146132498213641,-0.07762611505740492,1.894944271561555,2.78,82.39249767769658,10kmh,low
35,1,0,stance,0.14806526355909863,0.4147928108653378,-0.7184459827956933,4.07382338837811,0.5588961406268877,-0.367212069817492,2.9142130379617877,0.29050970499669365,-0.5757247182060993,1.5428566113808477,0.041221882936181356,-0.06042329576766092,1.9301085216455907,2.78,82.39249767769658,10kmh,low
36,1,0,stance,0.15229569966078715,0.13313275837279198,-0.6218733687210615,4.516289020885536,0.10321887886893634,-0.4062858534260918,2.82955735551259,0.3092329181974258,-0.16454889189502245,2.7887559394676265,0.010872574152239177,-0.04461287316267544,1.9532829509012422,2.78,82.39249767769658,10kmh,low
37,1,0,stance,0.1565261357624757,0.06338145927248127,-0.45583662464603464,4.274191583376898,0.16814137135179782,-0.34638083781025863,2.625992780572119,0.0015547489319849561,-0.5378886314015574,2.3679239827502276,0.01901353298184483,-0.030058108823094693,1.9640237529983715,2.78,82.39249767769658,10kmh,low
38,1,0,stance,0.16075657186416423,-0.054541731426445084,-0.7298656780364732,3.7575541992600963,0.025655159965504964,0.17724978226699248,1.8962487042464213,0.1405884072542148,-0.08653867401827017,2.742347226855901,0.016973673076884948,-0.01654352290452601,1.9621240348576376,2.78,82.39249767769658,10kmh,low
39,1,0,stance,0.16498700796585275,-0.18164876873984026,-0.22239817807210796,4.520333448261291,0.26013410360718,0.34896186036787413,2.6694220582427817,0.15880168736118622,-0.10763061235181816,2.57241677431554,0.039954930761241715,-0.0037961257206649357,1.9476204445062215,2.78,82.39249767769658,10kmh,low
40,1,0,stance,0.1692174440675413,0.15897606387834629,-0.1722206407095706,3.8541665119120787,0.20195136032113942,-0.19859755298967385,1.4611113177050632,0.016376861240045712,0.6505440516454936,1.4189839704166878,0.01820313355149623,0.00849299449739932,1.9207919952902122,2.78,82.39249767769658,10kmh,low
41,1,0,stance,0.17344788016922982,0.015216994335817823,0.1640676686960726,4.468485611289646,-0.64369229103965,-0.12586475994567348,1.7779018783181912,-0.29344322374265347,0.28925478202727306,1.5353800532254707,-0.03147665543548764,0.020647854278372388,1.882151139142905,2.78,82.39249767769658,10kmh,low
42,1,0,stance,0.17767831627091835,-0.2205705079252217,0.3210143334035578,3.567489160291502,-0.3185224052317709,0.12136622197526059,1.482139207259643,0.07405739320308555,0.4276934015886837,2.406632071973917,0.002697531716128927,0.0329882862577832,1.8324274878958118,2.78,82.39249767769658,10kmh,low
43,1,0,stance,0.1819087523726069,-0.2524698078884865,0.8137354959370459,4.549788161031683,0.055120440904509876,-0.7914232024865939,1.776056288066187,-0.2503827380170382,0.1535988968199648,2.172428382601544,-0.019032413368453308,0.0458126121153413,1.7725449050275208,2.78,82.39249767769658,10kmh,low
44,1,0,stance,0.18613918847429542,-0.13937484793572963,0.6912148773876712,3.0867019888026395,-0.17943745097857539,-0.2915619407335943,3.2992887323993365,0.09178522088281935,0.22223047832943504,1.547618611921094,-0.032350926242982504,0.059382465642925805,1.703592972525965,2.78,82.39249767769658,10kmh,low
45,1,0,stance,0.19036962457598394,0.13103977007402945,0.4178405129687469,2.9811571506476935,-0.14181055440135068,1.2634813079968663,-0.0057671673098174114,-0.3194665458680569,0.3637650803647935,1.48267726461558,-0.013952922719263272,0.07390980813896586,1.626794063299103,2.78,82.39249767769658,10kmh,low
46,1,0,stance,0.1946000606776725,-0.18790949334051824,0.44514230599039617,3.1781661089095854,-0.08322337688131534,1.5252418656145115,1.7263036751332508,-0.13454977118800338,0.8999840800530181,2.169857204193684,-0.012790426699819956,0.0895461275310741,1.543467407291955,2.78,82.39249767769658,10kmh,low
47,1,0,stance,0.19883049677936102,-0.40328691946179873,0.8992322632307664,1.7559663406480537,-0.062924738960652,0.7103038695274548,-0.19252708465716384,-0.2597529298696135,0.6243296488955125,0.5733312771082024,-0.021817411577263694,0.10637383910622372,1.4549916222243435,2.78,82.39249767769658,10kmh,low
48,1,0,stance,0.20306093288104954,-0.2425300689205197,0.5510474435440498,2.061561045127634,-0.5746223063917274,1.2645695305013491,0.45993356552494613,-0.07793791522595378,1.1211784774216724,1.2242055007445496,-0.06402830731241985,0.12439998075604815,1.3627671856530876,2.78,82.39249767769658,10kmh,low
49,1,0,stance,0.2072913689827381,-0.27325381402856,1.4416008171133334,2.1600658085923405,-0.6063114628055155,1.2822242021182673,1.4219237577253832,-0.3625965873270437,2.164299524169219,0.45356632067443803,-0.0599585381469255,0.1435523859386467,1.2681802567760316,2.78,82.39249767769658,10kmh,low
50,1,0,stance,0.2115218050844266,-0.6622033887984123,1.3783452773603635,0.24942180352332266,-0.31753968842143293,2.8239899848627212,0.44210547097063635,-0.10853986732869458,1.7201119323509486,0.23063455422862408,-0.05337134151679821,0.16367859080467664,1.1725691214134089,2.78,82.39249767769658,10kmh,low
51,1,0,stance,0.21575224118611516,-0.28962592739434295,1.0623182684791308,0.6857919668696194,-0.5629773367061736,2.008118287021548,-0.6256201206084104,-0.6897742355616585,1.285319065220339,1.0067711018289618,-0.04636437196773199,0.18454776137923795,1.0771943430744157,2.78,82.39249767769658,10kmh,low
52,1,0,stance,0.21998267728780369,-0.33826186892183785,0.843021102213439,0.26275873238137015,-0.4538897904793082,1.5515982635862255,-0.5623406507754996,-0.4891904129406115,2.2161640204085815,0.5931993929104991,-0.08096009602561907,0.20585589440960866,0.9832134708986735,2.78,82.39249767769658,10kmh,low
53,1,0,stance,0.2242131133894922,-0.2195055473900122,1.6961636362945844,0.06714438154175406,-0.9762576782146668,1.3055656979176842,0.280236305167577,-0.32820407824934744,1.5792982317071216,0.380670220467049,-0.08018228879499152,0.22723444421736713,0.8916608971974002,2.78,82.39249767769658,10kmh,low
54,1,0,stance,0.22844354949118076,-0.0649434415691637,1.4092474178751586,-1.390136630983906,-0.4517308911683289,1.1451398523075915,-0.9738730031850552,-0.6884488031808838,0.9293007448474508,0.5530110759685442,-0.10325029860197174,0.2482623614215568,0.8034331894688371,2.78,82.39249767769658,10kmh,low
55,1,0,stance,0.23267398559286928,-0.18957768907353034,1.820405961690568,-1.8669658363482888,-0.6319849047099653,2.2087731519504836,-0.4517249675661391,-0.48376418154688827,1.60299817855817,-0.598316028528051,-0.10923755283431281,0.26848131167391337,0.719279959676152,2.78,82.39249767769658,10kmh,low
56,1,0,stance,0.2369044216945578,-0.413024077524767,1.1773988572560348,-1.3644321488751323,-0.4356633498903939,1.8774465262900095,-0.7578145227750053,-0.6289928959939559,1.3202259384192334,-0.2805286742316426,-0.07276405758975724,0.2874135956845261,0.6398000911923364,2.78,82.39249767769658,10kmh,low
57,1,0,stance,0.24113485779624635,-0.550608894844798,1.4823446952517103,-1.8761358190984734,-0.20123889119329727,1.6792330209132649,-1.4475124476432428,-0.09457477713328077,2.2146031336914476,-1.191512254383972,-0.06508105973200462,0.3045820432864554,0.5654429326627671,2.78,82.39249767769658,10kmh,low
58,1,0,stance,0.24536529389793488,-0.008345316552042736,1.6800258192799473,-2.2767131837144112,-0.24498668027158554,2.1843923245203283,0.4941787713963315,-0.08663076048241714,2.516887956236367,-0.8706545312313313,-0.09630920218250034,0.3195309335679907,0.4965138966728604,2.78,82.39249767769658,10kmh,low
59,1,0,stance,0.2495957299996234,-0.3929351562216263,1.726642755457613,-2.582292211029978,-0.2746039404735702,2.063559905431849,-0.7810059114140676,-0.6189060968380176,3.442552563376688,-1.3540524689283395,-0.0769180801992286,0.3318468281395319,0.4331837748421727,2.78,82.39249767769658,10kmh,low
60,1,0,stance,0.2538261661013119,-0.4049182960014721,1.627655176668107,-3.4239854370361096,-1.0873144628842386,3.5211366911413644,-2.905489880322268,-0.7384715354015203,2.841029560487163,-1.313885966584524,-0.09132021334663282,0.34117811845120816,0.3755010018263628,2.78,82.39249767769658,10kmh,low
61,1,0,stance,0.2580566022030005,-0.41351660711892296,1.9098284251367477,-3.2704048910861667,-1.0921228800065148,3.1660543283325464,-1.3645686840824065,-0.40888251904316414,2.615684185453389,-1.058041651081792,-0.11245502232744858,0.34725209605731666,0.32340606766108815,2.78,82.39249767769658,10kmh,low
62,1,0,stance,0.262287038304689,-0.38077036246016743,1.4895670462146018,-3.516346394513285,-0.7931475985136033,2.7419383325174413,-2.1063926285075683,-0.2420499176570055,3.1606274437674946,-2.2237182923563816,-0.09275418000432266,0.3498884624331995,0.2767472872427663,2.78,82.39249767769658,10kmh,low
63,1,0,stance,0.2665174744063775,-0.43043239162648467,1.7115619219795895,-4.270333973650387,-0.46783680453941223,3.4789899719439745,-1.0646932334514343,-0.6050745738804377,1.6334502479950193,-0.13472777778450729,-0.06907813704559788,0.34900839736225303,0.2352971817246748,2.78,82.39249767769658,10kmh,low
64,1,0,stance,0.27074791050806607,-0.4908603905135063,1.7563436061758695,-3.2049942337739434,-0.5561885616269365,2.7434077818420595,-2.381293961336092,-0.7906500210181816,2.822530907072533,-2.541416443636343,-0.09984029659883753,0.3446385866486047,0.19876880194976732,2.78,82.39249767769658,10kmh,low
65,1,0,stance,0.2749783466097546,-0.48064077037412545,1.8227061928958779,-4.100993689190774,-0.6384213126387605,2.2134271602044655,-1.9454669493803525,-0.5274315115655208,3.0295018578120807,-2.7700560778709775,-0.0665480354376575,0.336909946593858,0.16683142062305012,2.78,82.39249767769658,10kmh,low
66,1,0,stance,0.2792087827114431,-0.39513037385113636,1.829009445961984,-5.1100319509470715,-0.9723196801326972,3.3204114079752274,-1.5435947122217053,-1.3551239990105362,1.8195562464504778,-1.0537520163319973,-0.14839251074005635,0.32605114288231374,0.13912512928924303,2.78,82.39249767769658,10kmh,low
67,1,0,stance,0.28343921881313167,-0.4611995881593134,1.316780527455963,-4.34037224147723,-0.7187471594649041,2.720992450654343,-1.3271800552346202,-0.759564412997623,3.023414450415478,-1.3827494303900094,-0.07716636469733121,0.3123773482176368,0.11527398980039194,2.78,82.39249767769658,10kmh,low
68,1,0,stance,0.2876696549148202,-0.47403749830437897,1.151880115533746,-5.289581418613848,-0.7635894402002872,1.8065429001832616,-2.92297463680048,-0.8617451811403172,2.494414181093697,-1.5546624687195314,-0.08893403079252953,0.2962749716292673,0.09489749893430578,2.78,82.39249767769658,10kmh,low
69,1,0,stance,0.2919000910165087,-0.336650851898964,1.7838802105204417,-4.523250985076382,-0.9917109302022171,2.0880128665155713,-2.312833047831817,-0.8319950472661937,1.9755382486069748,-1.5906979890028956,-0.09320600786226323,0.27818325758886026,0.07762021825200172,2.78,82.39249767769658,10kmh,low
70,1,0,stance,0.29613052711819726,-0.3745931282238841,1.4692560055588377,-4.434714461935769,-0.790063609640662,1.5914762028045035,-2.451155924332168,-0.5679265199596313,2.3456762625500245,-2.1041320205966367,-0.08144099288087024,0.2585735639012337,0.06307948139006941,2.78,82.39249767769658,10kmh,low
71,1,0,stance,0.3003609632198858,-0.09287774485081385,1.114621584584325,-5.505967127607995,-1.1523339911981214,1.17584691815818,-2.6125211018609553,-0.7558591566599077,3.0025932125425463,-2.795464956045045,-0.11859805443338253,0.2379264505148252,0.05093108030707672,2.78,82.39249767769658,10kmh,low
72,1,0,stance,0.3045913993215743,-0.6968608705019248,1.6002145732213207,-4.68166021597269,-0.7819978949916242,2.163785854140084,-0.8213537061228857,-0.15040445854377177,1.791630207903511,-2.088590967688414,-0.07835001918556736,0.2167045209447328,0.040852660959203334,2.78,82.39249767769658,10kmh,low
73,1,0,stance,0.30882183542326286,-0.1150886462797554,1.148475694713476,-5.012455291421692,-0.15872638831458002,2.487522087018978,-1.8606686080244057,-0.6717253476512377,1.656924059934081,-2.6722761748792063,-0.06147325432744138,0.1953126614148717,0.03254400785552757,2.78,82.39249767769658,10kmh,low
74,1,0,stance,0.3130522715249514,-0.07064370149464366,1.3193278192732327,-4.852680441520625,-0.46561645287261755,0.6664248353355807,-3.125697294635932,0.017813868954514145,1.1360281724750292,-1.4486945288213346,-0.03324111412037743,0.1740199569629398,0.02572195648281004,2.78,82.39249767769658,10kmh,low
75,1,0,stance,0.3172827076266399,-0.5467396852967087,0.9455338190410438,-4.351042021430227,0.19974846713425481,1.4804478061497324,-1.5044863078206294,-0.5118442601314701,0.774041003072051,-2.3031758042383155,-0.06674633014054068,0.15277308713104573,0.02010444759511713,2.78,82.39249767769658,10kmh,low
76,1,0,stance,0.32151314372832845,-0.2650336575751712,1.3485842178838132,-5.450107115267598,-0.32395443163933907,0.7007727523594569,-0.6117959557488832,-0.4596498342726696,1.441261945192493,-2.822536001102742,-0.0651352711314346,0.1307459272324631,0.015374105273082528,2.78,82.39249767769658,10kmh,low
77,1,0,stance,0.325743579830017,-0.2472749138913845,1.1789360107540992,-5.725762133620175,-0.29471090014496626,0.5847478710313425,-1.4376478752233937,-0.1722150580270338,0.40026864995925693,-2.4530362018764986,-0.049646123644777156,0.10554415939267209,0.011129824623146234,2.78,82.39249767769658,10kmh,low
78,1,0,stance,0.3299740159317055,-0.38096514962924893,0.5878462713090749,-5.809770681441292,-0.2755752185007124,0.28266207200078575,-3.3584485591632025,-0.34166627884598366,0.6146421527299165,-1.909222493990974,-0.008880992202622548,0.07375879639656222,0.007000618557048138,2.78,82.39249767769658,10kmh,low
79,1,0,stance,0.33420445203339405,-0.26546812842151724,0.8074875754289155,-5.784683209754199,0.1270685654719123,-0.12815469946828223,-2.5875911686007376,0.04759353216567713,0.06501196198906745,-2.6472090285540304,-0.006991248635551991,0.038715683661012454,0.0033193576402696726,2.78,82.39249767769658,10kmh,low
80,1,0,stance,0.3384348881350826,-0.29532546751991184,0.6460680162389956,-5.423629148756723,-0.24760825200286482,0.13658224183585269,-1.2785147079388042,-0.062085743390157315,0.3518113407366351,-2.845363366503595,-0.015101033266844524,0.014312108545290416,0.0011124776652964483,2.78,82.39249767769658,10kmh,low
81,1,0,stance,0.3426653242367711,0.1528910985992893,0.7535419007649661,-5.220122657346434,0.0937693497780245,-0.382899686962308,-2.7627693242813605,0.1863797121187214,0.19940642388668509,-2.049251816448341,0.009213178406390583,0.00415078634597489,0.0002935720236086354,2.78,82.39249767769658,10kmh,low
82,1,0,stance,0.34689576033845965,0.0476744860927603,0.10402852060837553,-5.255978506439599,0.6522120084915792,0.14368353242265614,-1.9018024734107595,0.08448303490133507,0.5272250916616863,-2.0509421161888888,0.0017752838101617228,0.0010773597773619686,6.958533067487261e-05,2.78,82.39249767769658,10kmh,low
83,1,0,stance,0.3511261964401482,0.1135942319436143,0.45832121454276287,-4.982947863597332,0.10901872806862453,-0.023020313728282556,-1.6559886123122651,0.7468587379775106,-0.2529094584310876,-2.6171715339126154,0.019372899810657786,0.00026742367434835876,1.5830895565326663e-05,2.78,82.39249767769658,10kmh,low
237,1,1,stance,0.0,0.10272007878998965,0.1827522711324953,-5.283269304135354,-0.615103792470354,-0.42450930699272443,-2.7834715533744565,0.14537850802512664,0.0011554932407416667,-2.4691033829528597,-0.012008471314774104,-8.821899632798114e-05,0.00014613280300554665,2.78,82.39249767769658,10kmh,low
238,1,1,stance,0.004230849186025533,-0.08388740190139694,-0.37544666745418886,-3.790918876037253,-0.06312641551127712,-0.32915076819587874,-2.310436328571522,-0.22873977185134134,0.5026251938048297,-1.1579123537379759,-0.037160072763828676,-0.00039581089441238814,0.0006203465152176162,2.78,82.39249767769658,10kmh,low
239,1,1,stance,0.008461698372051065,0.01440283738841128,-0.1772416407928511,-4.119082341372781,0.19973617900883275,-0.5580623777130865,-3.260469634195723,0.4618137220584279,0.6574920987235482,-3.177190069214262,0.021244655984383395,-0.0016878005914745626,0.0025368612752629865,2.78,82.39249767769658,10kmh,low
240,1,1,stance,0.012692547558076597,-0.02999808113305194,-0.509619787108675,-3.507841747215593,0.06547093800933404,-0.4424305919238182,-2.743817153984153,-0.2731752162757473,-0.4212917541291585,-1.5327333268664598,-0.008969888147562744,-0.006377374854735789,0.009444112276798663,2.78,82.39249767769658,10kmh,low
241,1,1,stance,0.01692339674410213,0.3594137855999126,-0.2966932393369959,-2.9224779041552416,1.187430715899306,-0.3312524402280396,-2.620521943261127,0.3417411339577475,-0.3886513086169593,-2.3219495297691735,0.029979800391761215,-0.01860326082225091,0.02885093135220525,2.78,82.39249767769658,10kmh,low
242,1,1,stance,0.021154245930127664,0.08326162074798074,-0.6689564982859725,-2.521587811282535,-0.5991277701203767,-0.9985542724577281,-1.449778851456966,-0.028146926816051146,0.31966649370896033,-0.31569591885070136,-0.011373166629638783,-0.03768740607395606,0.06876433263429549,2.78,82.39249767769658,10kmh,low
243,1,1,stance,0.025385095116153195,0.4385709171537503,-0.6335171893704377,-1.7738332074832854,0.8311283572955103,-0.4410051618626051,-1.207967687187453,0.46595921518865063,0.39369281051684807,0.234410574911448,0.05824292920565504,-0.05718837013728423,0.142507250306559,2.78,82.39249767769658,10kmh,low
244,1,1,stance,0.029615944302178728,0.31718126457948054,-0.8679595050607076,-1.956804120340728,0.10278521660527688,-0.13886183870517493,-1.3795261779409533,0.49273547148205776,-0.30855999551132113,-1.4132154537755244,0.02543280857075372,-0.07517844362875872,0.2839901047901784,2.78,82.39249767769658,10kmh,low
245,1,1,stance,0.03384679348820426,0.297623625441978,-0.5441052324825812,-1.390430428921208,0.5638984000840356,-1.1842797695243004,-0.22920189922122394,0.6751891996782338,-1.1703088562018673,-0.7739854052572075,0.07165664394688849,-0.09306851165275741,0.5394267434937887,2.78,82.39249767769658,10kmh,low
246,1,1,stance,0.03807764267422979,0.309522999973117,-0.5796497407514084,-1.150624035220591,0.42638297353925625,-0.11874286877999829,-0.27922920868742085,0.5099419505708226,0.11514572524883793,0.7754717699878796,0.06374851243112958,-0.11192467260459768,0.9341104417298944,2.78,82.39249767769658,10kmh,low
247,1,1,stance,0.04230849186025533,0.3406013458989547,-0.938804189520398,0.08390869709088625,0.23874999517201306,-0.7809576287532006,0.38414731509084976,-0.06891278053555011,-1.3018391219229803,0.2975406604932538,0.05021247684891859,-0.13205322031307312,1.4279145507452158,2.78,82.39249767769658,10kmh,low
248,1,1,stance,0.04653934104628086,0.017906157590901195,-0.9539325816878468,0.653432994618794,0.3141839178598458,-0.6878757801657578,2.2088749303179807,0.21663057609966957,-1.3707349635635122,0.9197274491448991,0.066498055907898,-0.15330862295843353,1.8955800801193128,2.78,82.39249767769658,10kmh,low
249,1,1,stance,0.05077019023230639,0.28875015124859765,-1.4053222870932678,0.8135184051280174,0.7227280309841401,-1.7046128427067737,2.1875765185857636,0.6096736136919567,-1.2045266485358943,1.2012720451498105,0.09325045101075984,-0.17529250328500318,2.172701475844551,2.78,82.39249767769658,10kmh,low
250,1,1,stance,0.055001039418331926,0.47868729779676117,-1.1929629700295556,1.657112516027535,0.2116312145425584,-1.1223103256190794,0.2750820653162158,0.614267732279641,-0.7724927287950001,-0.1899868741363282,0.08605280889915222,-0.19744813190015126,2.1547039664933667,2.78,82.39249767769658,10kmh,low
251,1,1,stance,0.059231888604357456,0.36354244452125684,-1.1994938248455036,0.9702968116233729,0.8711789882259859,-2.265569492735064,1.7854264074104245,0.4009832651770636,-1.2926145542612957,1.1527487844303657,0.09953898301231173,-0.21911347381975121,1.8704254218603833,2.78,82.39249767769658,10kmh,low
252,1,1,stance,0.06346273779038299,0.17655243395300235,-0.5935432387061578,1.3913227328776494,0.794010925121942,-1.4349726356092587,1.5657248465612075,1.5009786952378608,-1.6726636358465579,0.43988160014438304,0.1307790194179781,-0.23956375968750165,1.461593467444429,2.78,82.39249767769658,10kmh,low
253,1,1,stance,0.06769358697640852,0.39331015298720734,-1.5803656326445505,0.5448296067980272,0.14893027123585695,-1.939292645468825,-0.1767929152450749,0.8105461198093395,-1.7935680503065377,0.3145624345195598,0.06282912567292069,-0.2580545763717623,1.0878896659459913,2.78,82.39249767769658,10kmh,low
254,1,1,stance,0.07192443616243406,0.6679434120269047,-0.9808270009702085,0.9029113188641853,0.7717575384287949,-1.8726865579848755,1.0148127769176667,1.0347903330258692,-2.1275548336555343,1.483453546703132,0.12876958685419373,-0.2738675035648913,0.8425427985359137,2.78,82.39249767769658,10kmh,low
255,1,1,stance,0.07615528534845958,0.6077939218180864,-1.1321815631329528,1.4436756711293743,1.0027586227128205,-2.8351227628367437,1.3067475172470924,0.7064805338181135,-1.9682557027650647,-0.7890815922717647,0.10025794648276937,-0.28635645515090696,0.7354280238820978,2.78,82.39249767769658,10kmh,low
256,1,1,stance,0.08038613453448512,0.4171537642107388,-1.335111867572353,1.5320926762132854,0.42489643332843496,-2.7626265117932256,-0.8682272271490175,0.5056779626072028,-3.579871629502075,0.583585267595276,0.08136452673401642,-0.29499128321291074,0.7288373673136906,2.78,82.39249767769658,10kmh,low
257,1,1,stance,0.08461698372051066,0.5721324114159309,-0.9783455828632173,0.9985163294029796,0.5931042151186139,-2.0510360380134673,-0.811355676879489,0.26551119556064995,-2.4979538766750586,-0.33245075886764763,0.07332034521133084,-0.29939476900358813,0.7789265157926217,2.78,82.39249767769658,10kmh,low
258,1,1,stance,0.08884783290653618,0.3746727877835546,-1.3262633711629768,1.1834044817245357,0.47748322236072643,-2.8236253710784527,0.6268148908501723,0.6795924209193104,-2.228790401507962,-0.3462513356543303,0.09614421017760226,-0.299369440490106,0.8557576729917722,2.78,82.39249767769658,10kmh,low
259,1,1,stance,0.09307868209256172,0.17157924182970669,-1.3117594065918372,0.5747125813298877,0.9982291036648635,-2.08286244088675,0.12917760902772918,0.8731867762196462,-2.889972628746065,0.5183350479472766,0.11777321118158712,-0.29491151719371966,0.9441492211942341,2.78,82.39249767769658,10kmh,low
260,1,1,stance,0.09730953127858726,0.2832936574475271,-1.4006763874111454,1.3114577772477025,0.827998441780855,-2.9297491047681747,0.46259009806777523,0.34618136321289794,-2.053018542632272,0.3040213625648006,0.09561984958254029,-0.2862105251704959,1.037686660564509,2.78,82.39249767769658,10kmh,low
261,1,1,stance,0.10154038046461278,0.6485337730594563,-1.0487521701138187,2.1313031739806765,1.3318471017528306,-1.7233969843994228,0.47367029120132575,0.9532389977399521,-2.2497197012258177,0.6461881268156013,0.12664844814747747,-0.2736345681361821,1.1336483913010582,2.78,82.39249767769658,10kmh,low
262,1,1,stance,0.10577122965063832,0.3625434406721545,-1.0371688833578434,2.205067008582759,0.4030854152955692,-2.638712361425318,0.7110730911244226,0.4081616394641859,-1.1447128548833183,1.1441896458279603,0.06509049099612249,-0.2577026890979948,1.2304556675314526,2.78,82.39249767769658,10kmh,low
263,1,1,stance,0.11000207883666385,0.35417749537424725,-1.4143877725790541,2.4278336092719783,0.7921196385251681,-1.599891041076881,-0.3599931717118344,0.1480040478663437,-1.0895311473092142,0.38637963713398576,0.09100858269050408,-0.23904701961221236,1.3267525170444099,2.78,82.39249767769658,10kmh,low
264,1,1,stance,0.11423292802268939,0.3303581830212342,-1.5252741125649187,2.4832061833094086,0.4557875319291338,-1.4009392013478412,1.6427492300938558,0.21617439434952218,-1.946657452729923,0.3980833992469569,0.06280335620276652,-0.21836833182605014,1.4211638466749297,2.78,82.39249767769658,10kmh,low
265,1,1,stance,0.11846377720871491,0.6433151896600071,-1.1753747548766882,2.754677381344581,0.9503013863501503,-1.8896473896663912,1.9533023154798723,0.5229320575289856,-1.6166803362349516,0.2622469262406937,0.09120918026567594,-0.19638907752951118,1.5122648877665468,2.78,82.39249767769658,10kmh,low
266,1,1,stance,0.12269462639474045,0.5817714287840905,-1.2463971052939076,2.716609176344482,0.48822463195720744,-1.073031767433827,1.1122656870943,1.1398546431944376,-1.4010188337803866,0.6652508476611044,0.09726703492928354,-0.17380798304997327,1.5986043342267453,2.78,82.39249767769658,10kmh,low
267,1,1,stance,0.12692547558076597,0.6488261847970573,-0.9775546272423168,3.685338960916204,0.6411220007560897,-1.0568658112372853,1.4438587311695676,0.594008953670209,-1.4129166809838747,3.6882872625115084,0.06624008628757383,-0.15125980414170023,1.6787402175348278,2.78,82.39249767769658,10kmh,low
268,1,1,stance,0.1311563247667915,0.26837678173423973,-0.5620533727875823,3.82009970529613,0.0698430431956889,-1.284034122556854,0.5002126651399064,-0.2153530250501135,-0.9171007024464215,2.582052977609288,0.017258972946681134,-0.12928302681708523,1.751279219822541,2.78,82.39249767769658,10kmh,low
269,1,1,stance,0.13538717395281705,0.3110374842972141,-0.8908153059779288,4.105388663060119,0.44818417934955423,-1.354194279061991,2.183225574412872,0.5857402959810879,-1.229057971467682,0.7842287327434798,0.06760320716858581,-0.10829726516614258,1.8149166494791362,2.78,82.39249767769658,10kmh,low
270,1,1,stance,0.13961802313884258,0.01202309944168381,-0.6884298390403595,3.8145147114821865,0.47799111777930015,-1.6765750824663495,2.35026371644002,0.06822699943261556,-1.2605699040988232,0.9293771675967347,0.06626663705653225,-0.0885910087449108,1.8684753195731816,2.78,82.39249767769658,10kmh,low
271,1,1,stance,0.14384887232486812,0.4323801356769444,-0.5613471880396215,3.180652607491508,0.46950246792943984,-0.3770412695802131,1.9713485313588486,0.6771151322945388,-0.2405106812799257,2.3793913403972002,0.05918776304394503,-0.07031935438711263,1.9109416989151566,2.78,82.39249767769658,10kmh,low
272,1,1,stance,0.14807972151089366,0.005636957639773954,-0.2594140565467386,4.941660345406913,0.44536747810760646,-1.2023520628461755,2.9300036369594427,0.35664357593362633,-0.10518588505424242,2.497187215090041,0.06908762762313908,-0.053510534806976026,1.9414977861432021,2.78,82.39249767769658,10kmh,low
273,1,1,stance,0.15231057069691917,0.18210284601058596,-0.927002256223776,4.240892087431215,0.16327996666268751,-0.251175817924662,1.876237850872866,0.0861926236852632,-0.7010057974753123,2.5384586505958446,0.015960633591095955,-0.038079500209647815,1.9595473074546281,2.78,82.39249767769658,10kmh,low
274,1,1,stance,0.1565414198829447,-0.04721078858569955,-0.40925855058865246,4.084340482013124,0.6951419293684297,-0.31887177159358737,2.561376000316849,0.632061576863431,0.26053005182883704,1.9467047107313753,0.04377638196852827,-0.02384654224674602,1.9647350661797571,2.78,82.39249767769658,10kmh,low
275,1,1,stance,0.16077226906897024,-0.003920050974336328,-0.0959836422546542,4.844044117887371,0.5666084077313144,0.25670474374037544,1.3555493817028568,-0.001544905818552711,-0.398655508561388,2.026206940719768,0.04663550113987328,-0.01055895055794117,1.9569585670856882,2.78,82.39249767769658,10kmh,low
276,1,1,stance,0.16500311825499578,-0.07469855055072361,0.2607743501749027,4.228232033888725,0.07784169280987055,-0.13465107811004562,2.056871423945191,-0.4887265015926014,0.14295429065387708,2.320445180220388,-0.020306823258242842,0.002086094754700111,1.9363713839868713,2.78,82.39249767769658,10kmh,low
277,1,1,stance,0.16923396744102132,-0.07411432077962202,-0.05213196435470473,4.826883339153633,-0.017417527811433603,-0.05156482452962724,1.8709138563868375,-0.04943247789196714,0.5233310749501465,2.066099304533962,0.014047961802029139,0.014418841570326002,1.9033781160961631,2.78,82.39249767769658,10kmh,low
278,1,1,stance,0.17346481662704685,-0.0976911039126531,-0.2878951361861293,4.425340447631801,-0.29155426504767457,0.5760697580158054,2.0721801460014517,0.19035065476423563,0.19332812351980114,0.2387239249100941,-0.010083596620153418,0.0267755359163682,1.858621164508013,2.78,82.39249767769658,10kmh,low
279,1,1,stance,0.17769566581307236,-0.13278466240518552,0.44666970141421547,4.228315491900968,0.1750624437128372,0.4773593794494754,1.5038223238191537,-0.44359921471581165,0.5372008209779838,1.6086177975127773,-0.009285378745682398,0.03947889461103677,1.802959932544518,2.78,82.39249767769658,10kmh,low
280,1,1,stance,0.1819265149990979,0.04113456372494842,0.24327457628628388,2.926452709600829,0.161937322908503,0.5726157076248714,1.5386194135874816,-0.7651132747515877,0.15632290708969632,0.9986690346459972,-0.008311398751120658,0.05282081154860885,1.737443390672531,2.78,82.39249767769658,10kmh,low
281,1,1,stance,0.18615736418512344,-0.28228172540290664,0.21468624331682207,3.8957250748253403,0.14478469337860597,0.7608218790758368,2.09405764370582,-0.33617269016138923,0.4279547924575251,1.6059308293060743,-0.03252992217258476,0.0670474113368468,1.6632772290992177,2.78,82.39249767769658,10kmh,low
282,1,1,stance,0.19038821337114897,-0.11528939984285719,0.46530427912465805,3.0629809456739983,-0.45098843913968123,-0.12153106832125171,0.9680944262227009,-0.16205808266964375,0.543325277842131,3.5346118561039215,-0.0436862214427514,0.08234645684025244,1.5817870336191264,2.78,82.39249767769658,10kmh,low
283,1,1,stance,0.1946190625571745,0.003601136113087211,0.6834626087527395,2.3579507298612024,-0.309396854055337,1.15406796350674,-0.1012900234369436,0.048055747219457046,0.4023844502431294,1.3792540512227942,-0.03669865883431634,0.0988371079909848,1.494379052337811,2.78,82.39249767769658,10kmh,low
284,1,1,stance,0.19884991174320005,-0.2854823032960737,0.685060885628282,2.197842697289882,-0.8638958105380168,1.2210136838686,2.2137188029802073,-0.569815110428008,0.8263922053039079,0.6663836101968437,-0.06611690256395199,0.11656209057872055,1.4025001675427495,2.78,82.39249767769658,10kmh,low
285,1,1,stance,0.20308076092922556,-0.3440894946330722,0.3894045428683006,0.8008049554321612,-0.5981615268926401,0.5549245443328815,1.728526160841675,-0.6029004021564225,0.2889569591892568,1.3837867283067493,-0.07281837052241472,0.1354824297427536,1.3075986488988864,2.78,82.39249767769658,10kmh,low
286,1,1,stance,0.2073116101152511,-0.29719073265748686,1.266864246904648,1.4411788656120106,-0.05262356964601858,1.098127531115009,-0.489792551915056,-0.013291013726943579,0.9745908943810573,0.8414203848210675,-0.043944400362731964,0.1554749959164258,1.2110871473706104,2.78,82.39249767769658,10kmh,low
287,1,1,stance,0.21154245930127663,-0.11001907315594855,1.4596422396501736,0.2611100261934458,-0.7113069027413871,1.3642090545242371,0.782637963318535,-1.0621184828581929,1.2414249516532172,0.5804279772235201,-0.08660012493582898,0.17633316747426764,1.114309204591328,2.78,82.39249767769658,10kmh,low
288,1,1,stance,0.21577330848730217,-0.2802422099760848,1.3978497738136597,-0.36493084596638453,-0.22454879061895253,1.4848577045612967,-0.32420917264228777,-0.4817989332149108,1.424016220514473,0.5081598501829728,-0.05601700006103954,0.1977709093733643,1.0185103143142928,2.78,82.39249767769658,10kmh,low
289,1,1,stance,0.2200041576733277,-0.4093062268856507,1.039448648728499,-0.9121639553345371,-0.49675158561981614,1.8890204467610547,0.042498210016474997,-0.4015198366390989,1.6013417405413979,1.3872904721403365,-0.06540349630411582,0.21943048719123182,0.9248142980775308,2.78,82.39249767769658,10kmh,low
290,1,1,stance,0.22423500685935324,-0.2750728135631203,1.3563463983878485,-0.05009436751339624,-0.702135653780137,2.6062185633997377,-0.13619425137748664,-0.6708452305142685,1.8596530725540814,-1.2050286746320438,-0.11404542170314944,0.24089388028595132,0.8342054644495575,2.78,82.39249767769658,10kmh,low
291,1,1,stance,0.22846585604537878,-0.528688897836515,1.4809616902174594,-1.3651384771196566,-0.9563718149303793,2.5946872089772888,-0.7261369913978656,-0.7969006407741831,2.2935246041839066,-0.1951070835520332,-0.09748783565988968,0.2616977376581135,0.7475167281557806,2.78,82.39249767769658,10kmh,low
292,1,1,stance,0.2326967052314043,-0.2744179570775988,1.7002697789410124,-0.7124096363461982,-0.41797301487709393,1.5519366389987808,-1.3217979884044013,-0.43066512435910886,2.645304772780745,-1.4287595867007576,-0.06396903703008143,0.2813514571501636,0.6654235885736095,2.78,82.39249767769658,10kmh,low
293,1,1,stance,0.23692755441742983,-0.32614557840486763,1.776860593481364,-2.1572972794301686,-1.5091535002047733,2.660394161850524,-1.4244839162678666,-1.38345134583284,2.024476553273366,-0.4899436422739859,-0.11087367227021881,0.29935769198490053,0.5884436206509822,2.78,82.39249767769658,10kmh,low
294,1,1,stance,0.24115840360345536,-0.44193168392732607,1.4758445962733886,-3.1318058519091396,-0.7567861918681216,3.1384256909265136,-1.7544084873683579,-0.8746242554110875,1.8723586034642365,-1.7562794343719967,-0.1034020900433414,0.3152343311874119,0.5169409261867963,2.78,82.39249767769658,10kmh,low
295,1,1,stance,0.2453892527894809,-0.5273754385296364,1.7191835076709583,-3.201573619470887,-1.0063117431581263,2.771761025356897,-1.8393371134874128,-0.4853162540907245,2.0573345588907443,-1.5284955675183924,-0.08718413167749256,0.3285367947263374,0.4511348369188838,2.78,82.39249767769658,10kmh,low
296,1,1,stance,0.24962010197550644,-0.537939390584666,1.8413798907456855,-2.3654750169527485,-0.26504962159437884,3.2050154182902872,-1.4013112630215314,-0.8121217592947527,2.41592374509984,-1.5722449811629446,-0.08250302180443905,0.33887935852412127,0.39111205653653663,2.78,82.39249767769658,10kmh,low
297,1,1,stance,0.25385095116153195,-0.3256219097830295,2.108006060826339,-3.3752731461768275,-0.5223637272304766,3.7211837786806616,-2.010452686363534,-0.701969510024205,2.5390878969220245,-0.7417701550219385,-0.10437098666398784,0.34595419926481635,0.33684137650428564,2.78,82.39249767769658,10kmh,low
298,1,1,stance,0.2580818003475575,-0.22001176147051613,1.925482106993173,-3.8587950614591864,-0.6515903904063423,3.2550991121029167,-1.0722755423835169,-0.656540010697188,2.3582463059506975,-0.8949737587111715,-0.11187682188697576,0.34954693412964144,0.28819009718608546,2.78,82.39249767769658,10kmh,low
299,1,1,stance,0.262312649533583,-0.4961478355266032,1.9401144175797769,-3.7653397808941627,-0.11059625032968373,2.867904052735353,-0.5664632249768129,-0.57648510733397,2.0951914227895414,-2.6161858738135466,-0.07147922049214049,0.349547624224578,0.24494132532116394,2.78,82.39249767769658,10kmh,low
300,1,1,stance,0.2665434987196086,-0.3257551488916945,1.7455532037209553,-3.8289343904596844,-0.680577856659439,3.237610837237252,-2.2035061510645684,-0.400732783704087,2.4870061864577813,-1.7272656367871497,-0.0645622144245274,0.34595649849577925,0.20681139364640894,2.78,82.39249767769658,10kmh,low
301,1,1,stance,0.2707743479056341,-0.699388792459886,2.0474611481462546,-3.7301582846756784,-0.10286190986447796,2.732005646645697,-1.6646731721768486,-0.7803858506645206,2.7502750401542375,-2.376411438640261,-0.07859366671666922,0.3388840124996498,0.17346674942957374,2.78,82.39249767769658,10kmh,low
302,1,1,stance,0.2750051970916596,-0.4637924795418784,1.7564809691794352,-3.749278064676246,-0.41738729311658096,2.5903746434066734,-1.5352105773932623,-0.7020880041056887,2.875937854681978,-2.853853093126964,-0.09471897250352078,0.3285452499699535,0.14453977638614238,2.78,82.39249767769658,10kmh,low
303,1,1,stance,0.27923604627768517,-0.36855366597422246,1.3875284253439828,-4.8150508442279065,-0.8164265849632435,2.2983675402763906,-1.6125609733463602,-0.6047337207612014,2.195363131579096,-2.1293254643540935,-0.11027927233996027,0.3152490644920052,0.11964313929324702,2.78,82.39249767769658,10kmh,low
304,1,1,stance,0.2834668954637107,-0.48628337827990387,1.8927609933428744,-5.438318551300583,-0.45676337446664156,3.131262077896465,-1.9579069956884734,-0.701425171020269,2.1430564874086935,-2.2462355379674035,-0.1078590958587997,0.2993826960347108,0.09838236272204523,2.78,82.39249767769658,10kmh,low
305,1,1,stance,0.28769774464973624,-0.47453519398667765,1.6468155987073194,-5.102299653911697,-0.8080822084931634,1.799156491686847,-1.498781927121756,-0.6781416477812386,1.7450216702341923,-0.23575637613240596,-0.07740044129754693,0.2813928165975851,0.0803664631599343,2.78,82.39249767769658,10kmh,low
306,1,1,stance,0.29192859383576175,-0.41693708060288115,1.2843824874340442,-4.867581120082726,-0.7250468232446988,2.820507231988061,-1.7285082034061496,-0.46286418179008215,2.0386037844616145,-1.7654750488961204,-0.07556695541907389,0.261763935989934,0.0652165297136321,2.78,82.39249767769658,10kmh,low
307,1,1,stance,0.2961594430217873,-0.2543495709191266,1.1916479309317964,-5.565411113504733,-0.5057437502671173,2.141257078044041,-3.04716231452677,-0.17494387179803766,1.467110699078448,-3.1521286233469743,-0.05149211001269727,0.24099452295793267,0.05257215658209952,2.78,82.39249767769658,10kmh,low
308,1,1,stance,0.3003902922078128,-0.30660818779388527,1.2968975227124404,-5.633342402133015,-0.5554561284439903,1.0235260316349073,-1.4908797567890921,-0.935697021072356,2.009743025656478,-2.566327308209254,-0.061629780315710855,0.21956920477011696,0.042095484913172596,2.78,82.39249767769658,10kmh,low
309,1,1,stance,0.30462114139383833,-0.5937262519698256,1.245983942136533,-5.04126173326997,-0.9463955777152164,1.7370972503820759,-1.4969525378659791,-0.3924876507861788,0.6603393579193095,-1.3963831942439868,-0.09935287127204795,0.19791954687644817,0.03347210016499014,2.78,82.39249767769658,10kmh,low
310,1,1,stance,0.3088519905798639,-0.5549787138061971,1.0845368918019578,-5.284681956888494,0.01444448086398592,0.3339772117844959,-2.7510629581776023,-0.3753899705801133,1.2041756293840766,-0.6122663003912221,-0.04242409871994253,0.17634944770773545,0.026406648443693274,2.78,82.39249767769658,10kmh,low
311,1,1,stance,0.3130828397658894,-0.30645917682331075,1.0170715373031536,-5.281532110986551,-0.5934902765185066,1.528078601437828,-2.163407136571229,-0.4224041931159911,1.3658782626181813,-3.381347997335399,-0.07700257411184633,0.1548578737286328,0.02060782202980832,2.78,82.39249767769658,10kmh,low
312,1,1,stance,0.317313688951915,-0.1253076707191853,1.2686831897630964,-5.706578122693813,-0.3055978216235041,1.4840664759200568,-1.6902013061908114,-0.09441233280141698,1.1333679925868134,-3.6126413396533974,-0.05733567259541634,0.1327026929696179,0.015752623051868662,2.78,82.39249767769658,10kmh,low
313,1,1,stance,0.3215445381379405,-0.5849216891362874,1.0178438026443735,-5.4650803559210885,-0.38559022169001866,0.5480944465399136,-2.368493133509446,-0.585920804394215,2.1907892563561884,-0.808283887296088,-0.035386978314635,0.10757803572450819,0.011433674229125525,2.78,82.39249767769658,10kmh,low
314,1,1,stance,0.325775387323966,-0.22724061753676145,0.707046890381656,-5.828888880125963,-0.3735403751690148,0.6574006081911286,-1.4138650217863384,-0.09574980063877213,0.7705267724972912,-1.9263879245826694,0.01188444007108119,0.07589535680598081,0.0072490515460902115,2.78,82.39249767769658,10kmh,low
315,1,1,stance,0.33000623650999156,-0.2116861815430618,0.8085794645751785,-4.933971152935698,0.3973437845784219,1.2932654691386651,-0.45131305380100617,0.25769227101164016,-0.1858405461574832,-2.8754369736728016,0.048031082711601336,0.04028883183785957,0.003471116188221075,2.78,82.39249767769658,10kmh,low
316,1,1,stance,0.33423708569601707,0.09376963285942608,0.23455017302479075,-4.870090494997542,-0.42716723727374684,-0.13577608947422398,-2.8180843695560123,-0.1450418736999097,0.06936513911220783,-1.8276230304879486,0.007411752815086264,0.01492065018561982,0.001163872580066297,2.78,82.39249767769658,10kmh,low
317,1,1,stance,0.33846793488204263,-0.15544296650612727,0.5180976900031464,-6.316629848947834,-0.04983385761898313,-0.4958220259951336,-3.267772717003461,0.40105879786158616,-0.8544913992000592,-4.208800068900788,-0.004758314562052713,0.004285393416560484,0.00030377799866570864,2.78,82.39249767769658,10kmh,low
318,1,1,stance,0.34269878406806814,-0.02508340571965892,0.8040961370864002,-5.862011748883294,-0.26984213119653944,0.7494300214331547,-2.0068389920129155,-0.14195639494503498,-0.03170155444652509,-2.232171308768702,0.010519386706227348,0.0010956065496757579,7.084070692146447e-05,2.78,82.39249767769658,10kmh,low
319,1,1,stance,0.3469296332540937,-0.04793645692599008,0.23811419664580086,-6.14775959737384,0.6187295959972147,0.9833923362616833,-1.695888265916731,-0.016976098682203997,-0.4144292875040934,-1.9911942651290246,0.01775310851747672,0.00026742367434835876,1.5830895565326663e-05,2.78,82.39249767769658,10kmh,low
481,1,2,stance,0.0,0.08690345472219864,0.17510119358367876,-5.361132544367459,0.2769900357630316,0.13322947624998466,-2.92521184568869,0.24039043604856175,0.09560611668247057,-2.9342801863911268,0.013155263523007476,-8.821899632798114e-05,0.00014613280300554665,2.78,82.39249767769658,10kmh,low
482,1,2,stance,0.004261583037705472,0.15689560961649374,-0.39591244562513894,-5.198389210056771,0.07311802602098925,-0.41505356793521775,-2.195062214780852,0.23120658562814275,1.1927687350147032,-2.1483768004856163,-0.0012052465670275615,-0.0004187159304654719,0.0006550126977019953,2.78,82.39249767769658,10kmh,low
483,1,2,stance,0.008523166075410944,-0.039446848555156844,0.0035532190637535543,-4.4777755570680995,0.4144304948327766,-0.27386132669743013,-1.64252480600505,0.297376264863183,-1.0644131394763416,-1.3038042596862924,-0.022502673959390245,-0.0018775493459262096,0.002815443902784636,2.78,82.39249767769658,10kmh,low
484,1,2,stance,0.012784749113116415,0.12860677844869933,-0.5933247386977247,-3.5678534125940713,-0.030281103535418352,0.6051788219069543,-3.2158033661080183,0.30931447107909077,0.2841522840828395,-2.1845126514838924,0.02661643471878735,-0.007321511635010765,0.01085606124041007,2.78,82.39249767769658,10kmh,low
485,1,2,stance,0.017046332150821887,0.2773502897395683,-0.235291993359921,-2.869919978675222,0.15941303964846074,0.2471107394706561,-1.4251865141810987,-0.2341200858507001,-0.22384809919175974,-1.9623192872196351,0.004352353886845318,-0.021208839807878178,0.03341449681475218,2.78,82.39249767769658,10kmh,low
486,1,2,stance,0.021307915188527357,-0.022953944513983915,-0.3148057368731423,-3.6897556283525557,-0.05051857714009966,-0.2467811938152278,-2.290200993105476,0.01754539403233317,-0.042382486848863865,-1.8040341698734201,0.011909374590473067,-0.041509728585748425,0.07945337548732838,2.78,82.39249767769658,10kmh,low
487,1,2,stance,0.02556949822623283,0.26480695356332734,-1.0364296694591082,-2.0598020771212036,0.05173323898514212,-1.1176798331590263,-0.5132148699706732,0.3460130788607743,-0.8104066096000271,-1.5313694587294173,0.03918086292883401,-0.06138128600951387,0.16714831006825112,2.78,82.39249767769658,10kmh,low
488,1,2,stance,0.029831081263938304,0.27382063685161034,-0.6248593777692596,-1.4296902508873781,0.2273019393217759,-0.5212294123721396,-1.4129222908482173,0.7470752339569748,-0.6514102115366941,-0.4697054401273689,0.033496246334719516,-0.07988375332663979,0.33900111274859607,2.78,82.39249767769658,10kmh,low
489,1,2,stance,0.034092664301643774,0.2883804194412621,-0.8545206752352066,-1.116532978299358,0.38263792881429776,-0.2430241457081025,0.3107817292316414,-0.0011515606435354986,-0.41864750136911816,-1.3317382785389875,0.05072081097459426,-0.09866880620564038,0.6447997983526963,2.78,82.39249767769658,10kmh,low
490,1,2,stance,0.038354247339349244,0.46046189253742165,-1.0152053265429961,0.1647318246326609,1.22667278112882,-1.1190715540188392,1.100886033000831,0.7977735186701038,0.625200379385849,1.232215915779842,0.07239397005443382,-0.1186614068725881,1.0963710650910203,2.78,82.39249767769658,10kmh,low
491,1,2,stance,0.042615830377054714,0.37671523542767094,-0.5736856181987404,0.17358126187550701,0.4919469512754558,-0.4232375357661865,1.3406234371362178,0.5829619975828605,-0.6947764860585084,0.19547931931451878,0.07834329477155329,-0.14000950315488583,1.6175521947931293,2.78,82.39249767769658,10kmh,low
492,1,2,stance,0.04687741341476019,0.568632030429613,-1.1573379518068934,0.9912837245491829,0.12109378912761154,-0.6283956079963539,1.1943014317477414,0.6130961053061526,-1.6988010517707117,1.5472415596477707,0.0587794483033031,-0.1624322442348952,2.0430364982730125,2.78,82.39249767769658,10kmh,low
493,1,2,stance,0.05113899645246566,0.21671964410624742,-1.273483426079551,0.5208437558413129,0.5615778770635521,-0.6231946059558552,0.9931833717892706,0.4678265185309727,-1.6669408630389435,0.21416013094113828,0.0718399880136822,-0.18540532900453516,2.2027502576665805,2.78,82.39249767769658,10kmh,low
494,1,2,stance,0.05540057949017113,0.40320364082323074,-1.125183958695104,1.3075673343879695,0.21897883508869698,-1.4817171880684887,0.7340840372406591,0.5270306869437075,-1.8610458055260921,1.6680288174014555,0.10741791822852616,-0.20824907636775802,2.0405387185597736,2.78,82.39249767769658,10kmh,low
495,1,2,stance,0.05966216252787661,0.41052450725818934,-1.0379855626613963,1.7917840628493908,0.6613184822306847,-1.512791625952067,2.129216244088929,0.8720258727320842,-2.704309062170081,1.5298986818369744,0.09965162048663918,-0.2301844388194538,1.6575820546851519,2.78,82.39249767769658,10kmh,low
496,1,2,stance,0.06392374556558207,0.250276277072507,-1.3019871848873426,1.7071761501458527,0.927271471638137,-1.2579192737262717,0.26640314690049927,1.0868729078407522,-2.130058013742535,1.079176116030654,0.13444956328299795,-0.25038390900762186,1.2363621549752866,2.78,82.39249767769658,10kmh,low
497,1,2,stance,0.06818532860328755,0.5645187139472027,-1.0230397487439977,0.5450208043824747,1.0171119417846695,-1.8797638238294125,-0.25934686062951406,1.0614760874832971,-1.7370462514530278,-0.22736869680186111,0.11918768691544587,-0.2680250754795999,0.9213174676927763,2.78,82.39249767769658,10kmh,low
498,1,2,stance,0.07244691164099303,0.777667132261169,-1.2198850676367796,0.9886658771620602,1.0709030026103463,-2.4664720406315515,0.7605716438419245,0.8241712814087258,-2.8529710462748428,0.4487060847658598,0.12050348627543098,-0.2823464560061729,0.7594709736006856,2.78,82.39249767769658,10kmh,low
499,1,2,stance,0.07670849467869849,0.4317187265650584,-1.9243501341320424,0.971764803525037,0.3635569603360922,-2.521395732593568,-0.537020638387482,0.3394938592330592,-1.7728829888043414,-0.8272101745484022,0.07127557376773286,-0.29270187491458177,0.7229069437368262,2.78,82.39249767769658,10kmh,low
500,1,2,stance,0.08097007771640397,0.5126990190036113,-1.527922587835392,1.4379773941018075,0.7527337340230267,-2.2242018087467144,-0.7759537636109946,0.4006904889245495,-2.0995918750914147,-0.25297858183353816,0.11509935017919178,-0.2986084716658491,0.7613212156097175,2.78,82.39249767769658,10kmh,low
501,1,2,stance,0.08523166075410943,0.4496493705026084,-1.539989713041095,1.6166731491157005,0.48774036302415014,-2.9979815349465766,-1.1849163144326735,0.8841138877116694,-2.7198174849589862,0.6698467079111448,0.09891809679289615,-0.29978348929325527,0.835843800277966,2.78,82.39249767769658,10kmh,low
502,1,2,stance,0.0894932437918149,0.3273004028894712,-1.271719021169295,0.9716737341728429,0.32562169887444803,-2.3959395253193474,-0.4235509444749611,0.713609708187368,-2.395074886306175,0.5361578804234837,0.0884865789393289,-0.2961659107590789,0.9257020664005317,2.78,82.39249767769658,10kmh,low
503,1,2,stance,0.09375482682952038,0.15593703093113764,-2.0279113569750837,1.5823275404852684,0.7762829186739594,-1.7113268487801065,-0.015079086385521662,0.4573635656128109,-1.460439504074717,0.05834438844217307,0.10176339359673812,-0.2879205412710542,1.0220772242573533,2.78,82.39249767769658,10kmh,low
504,1,2,stance,0.09801640986722585,0.31526393435819083,-0.7029924912374802,0.7340923316954142,0.4753055724140614,-3.257154657089471,0.3896530996579842,0.6590585412390552,-1.7947538247538977,-0.5237706280296713,0.11558205323477666,-0.27542402287293966,1.121425828028543,2.78,82.39249767769658,10kmh,low
505,1,2,stance,0.10227799290493132,0.2018217097310361,-1.1648826263262198,2.694917143195632,0.6129693984785881,-1.2672292248427346,1.1173097922491109,0.5999364206336937,-2.030078448290918,0.8880208931551435,0.10435796179140147,-0.25923423493119163,1.2218786612471866,2.78,82.39249767769658,10kmh,low
506,1,2,stance,0.1065395759426368,0.653191760668095,-1.2073062021459955,1.9756025394835797,0.25825827140400615,-1.3226962492982919,1.0168644535803328,0.13630565338321093,-2.0027250171303637,0.6362269391045066,0.0738389051083174,-0.2400462995221549,1.321910248251512,2.78,82.39249767769658,10kmh,low
507,1,2,stance,0.11080115898034226,0.36483820065082073,-0.8862852735677669,2.5376692945100756,0.8429823673026845,-1.9457669248281062,0.7050270386994381,0.5011409715788362,-1.6775800816870383,-0.8920554953084946,0.10274669735402937,-0.2186397320225367,1.4199864055072897,2.78,82.39249767769658,10kmh,low
508,1,2,stance,0.11506274201804774,0.3124188901675756,-0.5240569056479524,2.644079374106923,0.9384583209774473,-1.2651155549559885,0.9241923196160658,0.20464320695923677,-1.792692747863045,1.6598114466382443,0.07107918977149051,-0.19582198890059802,1.5145155761790499,2.78,82.39249767769658,10kmh,low
509,1,2,stance,0.11932432505575322,0.47767543701554227,-0.8126590201106653,3.6628717147801297,0.24846458613995248,-1.3512149520177452,1.669996905963833,0.4707418288688011,-2.4051635683304156,1.2692041788751762,0.08356801832543838,-0.172373702277129,1.603875085979687,2.78,82.39249767769658,10kmh,low
510,1,2,stance,0.12358590809345868,0.15395988702898794,-0.706567791297579,1.9542858032985364,0.004180866316730536,-0.5543591400545573,2.439839192997418,0.28276111245873214,-0.14826536900653342,2.387250006788295,0.06806982482031787,-0.1490002961613021,1.6864542689228534,2.78,82.39249767769658,10kmh,low
511,1,2,stance,0.12784749113116414,0.1831784525284005,-0.8185347131900492,3.630820920200307,0.40959335713495026,-0.4998104962858628,1.756843304480489,0.034063848255779905,-0.9134895680711327,0.8406547657359853,0.06419325447392853,-0.12629358660433657,1.760701876013562,2.78,82.39249767769658,10kmh,low
512,1,2,stance,0.13210907416886963,0.28261952061803153,-0.7889582645503734,3.8264357140750977,0.538833994737609,-1.5217647084545443,1.4620265458461565,1.0405571033905399,-0.6226557143017711,-0.5686531733930371,0.0778956670668661,-0.10470557426899078,1.8251741742510037,2.78,82.39249767769658,10kmh,low
513,1,2,stance,0.1363706572065751,0.39930025949544456,-0.7706887755684536,3.858907130518091,0.2975613871376821,-0.3698007626896604,1.1934420607392502,0.5560317432056654,-0.6923858443602031,2.1474044553122984,0.035371568435759095,-0.08453516429940734,1.8785814651734938,2.78,82.39249767769658,10kmh,low
514,1,2,stance,0.14063224024428056,0.29136231798421147,-0.753004062957327,5.114417194891616,0.49497388051571134,-0.6202106039678694,0.9490078638296717,0.4117991539443012,-0.8849550775085395,2.2515845696503205,0.08832882034721096,-0.06592720147123414,1.919830917116333,2.78,82.39249767769658,10kmh,low
515,1,2,stance,0.14489382328198605,0.2232178369696116,-0.6102275949369037,3.9266163426871716,-0.009368517624528026,-0.34221081485245375,2.5968358326779093,0.1088966562452324,-0.4765893405858891,0.8291298579404278,0.005940193254962856,-0.04888214833225073,1.9480637259457272,2.78,82.39249767769658,10kmh,low
516,1,2,stance,0.1491554063196915,0.16647596500146877,-0.665968101816007,4.824026247159015,0.25035238203900667,-0.6252207249882866,2.56360785682345,0.26284105185917983,-1.0608321556005345,1.3962493046938276,0.023077731091285292,-0.03327405383580261,1.9626848403045627,2.78,82.39249767769658,10kmh,low
517,1,2,stance,0.15341698935739698,0.18270270755800294,-0.2355149259451814,4.629777659802286,0.4996493863005377,0.7259439603234726,2.5648042629864776,0.5373131268326972,0.9904186747897072,4.198194926946408,0.03488301487393737,-0.018874181222852317,1.963383814581015,2.78,82.39249767769658,10kmh,low
518,1,2,stance,0.15767857239510247,0.12012671592690025,-0.5247220484620294,5.039772339999706,-0.2728704213192452,0.4778263766134014,2.006026603308605,0.011240514595305867,-0.6594605325490845,1.8733132274572946,0.03143902304650146,-0.005377743799424895,1.9501457689539123,2.78,82.39249767769658,10kmh,low
519,1,2,stance,0.16194015543280793,-0.0979165419155871,0.05801125811908164,3.976119123916885,-0.024304402910815467,-0.31048835822603044,3.098466364263209,0.3409571528426566,-0.45658591816313654,2.591484537126558,0.009892304768756384,0.0075684535882330805,1.923251916082051,2.78,82.39249767769658,10kmh,low
520,1,2,stance,0.1662017384705134,0.029876580716330522,0.11556052493592014,3.788056804436289,0.07287095825209272,-0.5076835416176614,1.5923441825365665,-0.1175575662849069,-0.0605078403557453,1.467438182948892,0.002827837449661696,0.020339164352377027,1.8832696283991777,2.78,82.39249767769658,10kmh,low
521,1,2,stance,0.17046332150821886,-0.1718178521506928,0.27596077099295063,4.49351908272616,-0.20040987635084798,0.06854753303703914,2.5573693257970405,-0.3048814512403173,0.9054217109521521,0.27319022375176893,0.004235350196859767,0.03330579109658043,1.8310325360220365,2.78,82.39249767769658,10kmh,low
522,1,2,stance,0.17472490454592435,-0.03224436216806433,0.22319674946095497,3.8982814598592723,0.31932753359741917,0.5846481824422562,1.6729903487868594,0.0675692654842186,0.3746513590279305,1.5743538349320874,-0.01652320872934407,0.046814074846662,1.7676116303176723,2.78,82.39249767769658,10kmh,low
523,1,2,stance,0.1789864875836298,-0.1498552183799815,1.237037045679699,2.60651688679444,-0.10315501973450444,0.6001232324172365,1.0852718942535156,0.37838705635328684,-0.1380475875711062,1.3423315475484399,0.008110885440902842,0.061164667487783514,1.6942787719425099,2.78,82.39249767769658,10kmh,low
524,1,2,stance,0.18324807062133527,0.27030053937005843,0.9211571885267217,2.7607644817949804,-0.0837437265779815,1.2276969308439152,1.806802588048539,0.5735566885565103,1.2282996988384633,1.0624961785589395,-0.010691794790470482,0.07659665117989214,1.6124643390888729,2.78,82.39249767769658,10kmh,low
525,1,2,stance,0.18750965365904076,-0.1487090023191221,0.38207313559656025,2.8385858724398756,0.018320761555608273,1.1269741774401805,1.4751421494983297,-0.4206160789275178,1.097514629742495,1.08193443385554,-0.017574597736269758,0.09327399545741005,1.5237109827571054,2.78,82.39249767769658,10kmh,low
526,1,2,stance,0.19177123669674623,-0.38450421606252694,0.8617635920840481,2.648750553528571,-0.571412429426903,1.358070615609813,1.2291969257426818,-0.24886131095623215,1.142503581341586,1.1596685600267145,-0.061685049108261156,0.11127498760618752,1.4296255699808693,2.78,82.39249767769658,10kmh,low
527,1,2,stance,0.1960328197344517,-0.22391751229858103,0.7595374758161171,1.4504729069104654,-0.8119473859820869,1.1882571102566415,0.8074738582796711,-0.4527544349793659,1.382696530536843,0.6339273282971671,-0.05101268734978632,0.13058478720074196,1.3318313904051566,2.78,82.39249767769658,10kmh,low
528,1,2,stance,0.20029440277215718,-0.15435487404159604,0.7628753819765424,-0.12469286782186928,-0.534186391054308,0.49111583964232886,0.49805170791828535,-0.23118308169416682,2.3829461550390496,-0.4215331067546143,-0.06218476180649114,0.15109138694544139,1.2319225821366298,2.78,82.39249767769658,10kmh,low
529,1,2,stance,0.20455598580986264,-0.008057220064494386,0.7826220345619336,1.1248742925471833,-0.31042288951153707,1.2566006214680854,2.0959030645050887,-0.9354054163011098,2.446997334559592,0.6692626635237138,-0.08268283507984524,0.17258535767603667,1.1314225125873438,2.78,82.39249767769658,10kmh,low
530,1,2,stance,0.2088175688475681,-0.3724316212988945,1.3221768483056235,-0.22141023976943996,-0.5056330021590105,2.0585509747224084,0.9722489130022531,-0.7371016643873669,1.185148433266428,-1.377972387386694,-0.06136729582972564,0.19476377481754276,1.0317475485132275,2.78,82.39249767769658,10kmh,low
531,1,2,stance,0.2130791518852736,-0.5443183558483153,1.1346877324329814,-1.0938981736270512,-0.7945464290466573,1.6791273993839126,0.40970319313625103,-0.7769065594735336,2.5168313600518117,-1.6701850710660335,-0.08488974132545692,0.21723864215675784,0.9341772903568442,2.78,82.39249767769658,10kmh,low
532,1,2,stance,0.21734073492297906,-0.20521913592047653,1.6313771603878626,-1.969380521934275,-0.22267110791491823,2.1315331178499894,-0.25845377049266227,-0.43434814887357753,2.0715720284175663,0.21208223188097247,-0.0661262793491479,0.23954994056296078,0.8398319553833888,2.78,82.39249767769658,10kmh,low
533,1,2,stance,0.22160231796068453,-0.5533557916210498,1.7147675840020224,-0.603278680135407,-0.8053409024432091,1.8903911799678956,0.21190013278810915,-0.8829174950720349,2.2993132456598366,-0.163202563557875,-0.10523477187089647,0.26118314699171286,0.7496571981845628,2.78,82.39249767769658,10kmh,low
534,1,2,stance,0.22586390099839002,-0.427840725759639,1.8782649723687797,-1.3877070119141308,-0.4950394291821679,1.6950180593972264,-0.3456614673179621,-0.20273563979125866,1.3637885678464847,-0.777204073417078,-0.05351670682534055,0.28159072167025345,0.6644162803805572,2.78,82.39249767769658,10kmh,low
535,1,2,stance,0.23012548403609548,-0.41475755062242115,1.380810412607708,-1.987545835655803,-0.7134396581703405,2.2944285485185882,-0.8933542424020645,-0.49408002602168927,2.2709076978475453,-1.9595941855488954,-0.10933503430699984,0.3002166896714632,0.5846891648082156,2.78,82.39249767769658,10kmh,low
536,1,2,stance,0.23438706707380094,-0.3977319631887324,1.7616939720638514,-1.5807779611310828,-0.42503537751723086,2.6385969661163653,-1.3067099608159498,-0.46782854461058876,2.077661449431756,-1.60996992237207,-0.08995528322730853,0.31652309436799675,0.5108778295056206,2.78,82.39249767769658,10kmh,low
537,1,2,stance,0.23864865011150643,-0.2925073877447884,1.8390099175661778,-2.332648466390192,0.0402957332221634,2.2621281578896073,-1.2923157434630197,-0.15043573979575608,3.004001425066984,-1.4286878009808817,-0.08084063633478565,0.3300168218170654,0.443216884333215,2.78,82.39249767769658,10kmh,low
538,1,2,stance,0.2429102331492119,-0.5044107230778577,1.5889009789133128,-2.1928583670998094,-0.5472967267293909,2.5526235825892747,-3.7483215851951077,-0.6501490962799109,3.2060194552190113,-2.567422759717151,-0.10981589539008982,0.3402751280603477,0.38178843339383084,2.78,82.39249767769658,10kmh,low
539,1,2,stance,0.24717181618691736,-0.44627976818585136,1.5291223627691057,-4.0196033791121435,-0.2762711433881473,2.253274616503521,-1.3377342044456373,-0.8704553125702752,1.6857630619883563,-2.049956327436293,-0.0824568421414349,0.34696817501229765,0.32654005938916664,2.78,82.39249767769658,10kmh,low
540,1,2,stance,0.2514333992246228,-0.4080897859814312,2.126879899228657,-3.6347039775282997,-0.9818718838907445,3.3054572222711442,-1.9738199504539988,-0.5145362057591958,2.734817331486961,-1.118215136738719,-0.1245639047828427,0.349877008599528,0.27730480675220365,2.78,82.39249767769658,10kmh,low
541,1,2,stance,0.2556949822623283,-0.3816393326565197,1.7715599843750136,-4.691912099817714,-0.7425118386738119,2.5909839813715076,-0.5118414466007757,-0.6373338710829421,3.299142612562651,-0.6358649220960264,-0.07077978916287211,0.34890569064290583,0.23382210004360193,2.78,82.39249767769658,10kmh,low
542,1,2,stance,0.2599565653000338,-0.3849851054391922,1.8517558204717415,-4.236747382525261,-0.6625331343274435,3.4267702036677274,-1.7785035663315687,-0.45051134681083177,2.6070529499479136,-2.1075876839342973,-0.09874995947753375,0.3440867012110902,0.19575864116448752,2.78,82.39249767769658,10kmh,low
543,1,2,stance,0.26421814833773927,-0.3273559963429366,1.4535588764898155,-4.458086946941437,-0.7254588941729091,3.3979996637245433,-2.760005343185324,-0.35881781884903163,2.9981575609552715,-1.3009165127970288,-0.10954585306360978,0.3355792225349247,0.16272847026136814,2.78,82.39249767769658,10kmh,low
544,1,2,stance,0.26847973137544473,-0.2568850588559417,1.3093525206426828,-4.206605078701913,-0.9671008526330385,2.4995642160701483,-1.9704772520419735,-0.5833006646092894,2.715669932244562,-3.3686121893864858,-0.101568758889164,0.3236604483219954,0.13431153696016915,2.78,82.39249767769658,10kmh,low
545,1,2,stance,0.2727413144131502,-0.31299511522003115,1.4164257018001039,-4.659133271481864,-0.5710023785778253,1.9185362089450568,-2.772921280089368,-0.9012184493929846,2.5935906911950446,-1.493742035457281,-0.07676987710817273,0.3087105727852614,0.11007029677912375,2.78,82.39249767769658,10kmh,low
546,1,2,stance,0.27700289745085566,-0.2901533127129058,1.4628293608124467,-4.5097518770042395,-0.596571775065128,1.2423300146712848,-1.680006572414547,-0.9259542171223587,2.1496214645038045,-2.6380234452445075,-0.1014127239689691,0.29119252720921934,0.08956400748459403,2.78,82.39249767769658,10kmh,low
547,1,2,stance,0.2812644804885611,-0.5798684700157751,1.1543284748529197,-4.588622338066644,-0.6029083859109479,1.3957159117787292,-1.8560367318177076,-0.362320617944184,1.5234440462242702,-1.843738042541344,-0.10091841192157683,0.271627732962809,0.07236053298832532,2.78,82.39249767769658,10kmh,low
548,1,2,stance,0.2855260635262666,-0.31758984491004116,1.337177436731846,-3.9630068002962497,-0.4646605265768192,1.279547128014368,-1.3884636467579083,-0.6330131613335914,1.4056994667511842,-2.292657683768891,-0.08602482742433193,0.25056887620587387,0.05804553526840513,2.78,82.39249767769658,10kmh,low
549,1,2,stance,0.2897876465639721,-0.23427205130868461,0.8307871399431536,-5.281417899083715,-0.6158492468551446,2.4830465957956678,-2.7269225314935484,-0.6686970456539639,2.148488039292574,-1.1434506803847486,-0.10027529188721501,0.2285692892539393,0.04622887313606173,2.78,82.39249767769658,10kmh,low
550,1,2,stance,0.29404922960167756,-0.1766925331443902,0.8815923790335776,-5.662663810416415,-0.366860815228978,1.6757297048266595,-2.1303425817607096,-0.05040254637056174,1.627546538972628,-2.811675390186758,-0.03496558182779439,0.20614391070504412,0.036547641784601376,2.78,82.39249767769658,10kmh,low
551,1,2,stance,0.298310812639383,-0.36878349968929697,1.234892566689962,-5.124440232236025,-0.6561408165959114,1.6365038124251032,-3.197643839436664,-0.35358494441361976,1.372445428075497,-1.7031727696953143,-0.07684078344745895,0.18370305178123206,0.02866410088212834,2.78,82.39249767769658,10kmh,low
552,1,2,stance,0.3025723956770885,-0.3420563150423229,1.1220289951181999,-5.692675452369859,-0.5911532977094195,0.15646702254979972,-1.6624104435351148,-0.22171549511458533,1.0547325058561865,-2.3981621274510507,-0.042437082890774795,0.16140131587886883,0.022253678572513962,2.78,82.39249767769658,10kmh,low
553,1,2,stance,0.30683397871479395,-0.30727316851539965,0.7768805151529345,-4.584998472695946,0.11957820584775669,0.4899252096613441,-1.8112435002205671,-0.3787826467536335,0.936314001529599,-2.3191259940579063,-0.04756306304769435,0.13874979921890607,0.016972255996197144,2.78,82.39249767769658,10kmh,low
554,1,2,stance,0.3110955617524994,-0.11866260703457518,0.5255104817607245,-5.493957644938861,-0.4253435421336492,1.3363147074474504,-1.8381023685256852,-0.5068732447215618,1.4162307164683767,-2.3478465541657707,-0.06242990145456131,0.11375825933031433,0.012394879307177956,2.78,82.39249767769658,10kmh,low
555,1,2,stance,0.31535714479020494,-0.022347255591885218,0.43097703379921354,-5.65482793039233,-0.26730755469679857,0.7907610111453396,-2.2163781184126683,0.003380415574750134,0.47975191402003314,-2.851847220300959,-0.03074039474997606,0.08248903605428727,0.008037989410652549,2.78,82.39249767769658,10kmh,low
556,1,2,stance,0.3196187278279104,-0.21752765974751673,0.5065237883297133,-5.621960770143774,-0.23531935310970256,0.28280576140389235,-1.9125328864936095,0.13527105002036044,-0.31412395590409337,-2.2341867790152063,-0.00045454095625278526,0.04541391446823279,0.003973485741019003,2.78,82.39249767769658,10kmh,low
557,1,2,stance,0.32388031086561586,-0.00019656086527877759,0.6783492448316751,-5.037040848571982,0.6705638062012068,0.4156455780171785,-1.0250377792905965,-0.12767566953518517,0.5050502864872038,-2.2752782771134097,-0.009225377804097537,0.0169755859731291,0.0013389942091571385,2.78,82.39249767769658,10kmh,low
558,1,2,stance,0.3281418939033213,-0.09915475067420582,0.6730632252168928,-5.481734221934211,-0.11296568594332176,0.855074046906009,-2.4457441125383608,0.42589440036068726,-0.06526318809425716,-2.0509932334518033,0.02262506511029593,0.004736893965099574,0.0003381882183630273,2.78,82.39249767769658,10kmh,low
559,1,2,stance,0.3324034769410268,-0.11916693557389892,0.24785976235639537,-5.7278265930134244,0.031809806626407824,-0.1014558654740874,-2.130853215308704,0.10676325924548022,0.0247632990608261,-2.17145824382162,0.020244908697819454,0.0011551180293626246,7.494484096933142e-05,2.78,82.39249767769658,10kmh,low
560,1,2,stance,0.33666505997873225,-0.11684568769943782,0.022384703819078033,-4.5767038685566765,0.23016297521029008,0.03678364232532063,-3.0519776574197595,-0.08671177744482336,0.8058878941960411,-1.6388870208245248,0.018378297093166587,0.00026742367434835876,1.5830895565326663e-05,2.78,82.39249767769658,10kmh,low
709,1,3,stance,0.0,0.04908219625458626,0.14551438367767947,-4.9741688381272775,-0.1315684351783231,0.6760344811274196,-3.063710827646105,0.1631557337308574,0.1707708459774893,-0.8547266961505235,-0.017069909601226833,-8.821899632798114e-05,0.00014613280300554665,2.78,82.39249767769658,10kmh,low
710,1,3,stance,0.004271486305732378,-0.06961257877421051,-0.04114834387859158,-4.101988163295543,-0.10306596311112479,0.6694712002344309,-1.622996501541689,-0.2556220296131149,0.6179199331022646,-0.6885467571007993,-0.013159424196336304,-0.0004860641017733493,0.0007566491255884421,2.78,82.39249767769658,10kmh,low
711,1,3,stance,0.008542972611464757,-0.28430305385690274,0.11086841390592428,-4.089369462055947,-0.08253951293685324,0.7023472490557677,-2.072202297550006,-0.2514366746334505,-0.40917557315740993,-1.8132310376164056,-0.017868355617465033,-0.002483169027440294,0.003703308137955511,2.78,82.39249767769658,10kmh,low
712,1,3,stance,0.012814458917197135,0.2394079470089797,-0.45724703460919525,-2.5975541828207636,0.46641096870311527,0.0642643678271671,-2.158437690951033,0.18667081940739874,-0.4073694158464963,-1.8266554448936705,0.04381028442743707,-0.010375270716208697,0.015502225984428804,2.78,82.39249767769658,10kmh,low
713,1,3,stance,0.017085945222929513,-0.014863752285972684,-0.5427436670823347,-2.4590615404362723,-0.03460288606461995,-0.20981938022507085,-0.890432119345087,0.30992328447966977,-0.3803919310424444,-0.7849805625205123,0.032790870252994736,-0.02878592300503194,0.04799642891700262,2.78,82.39249767769658,10kmh,low
714,1,3,stance,0.02135743152866189,0.009331474903146897,-0.8545562843235318,-2.0252416774775805,0.5471443830917704,0.032854494627832076,-1.6736983442199143,0.2393197414147052,-1.4558454463440014,-0.397153406984857,0.018240478998481427,-0.0514212598064902,0.11479094986314253,2.78,82.39249767769658,10kmh,low
715,1,3,stance,0.02562891783439427,0.11180249985958955,-0.730552180559559,-1.1950944814889628,0.5447316554549889,-0.20081193022442023,-0.9557674561453227,-0.27771105044895605,-0.49781320173215804,-1.410110313714607,0.07040237139388882,-0.07222889983956822,0.2537143383294441,2.78,82.39249767769658,10kmh,low
716,1,3,stance,0.02990040414012665,0.24619371839120593,-0.47527844085834875,-1.0205723598276415,0.599664630024467,-0.8809552275022491,0.7047982778252095,0.6733749218809181,-1.6694864611086322,-0.7395390345806865,0.06086589754245174,-0.09256143082735971,0.5304586394082618,2.78,82.39249767769658,10kmh,low
717,1,3,stance,0.03417189044585903,0.22792248164254916,-0.4827035975369152,-1.9179281846841887,0.3187191856663114,-0.6930301195061684,1.2761429214406124,0.8348485441661606,-0.8689121674439929,-0.8699744139298471,0.06928156918672232,-0.11409809173168992,0.9856705370883105,2.78,82.39249767769658,10kmh,low
718,1,3,stance,0.0384433767515914,0.3476876889514029,-0.655746144218364,-0.4575618009125921,0.7595868481916104,-1.0948717150424538,1.7168982375555109,0.17544467960230964,-0.6446786035825318,0.8443982836033084,0.06378204659133932,-0.13727363425715552,1.5537009988454498,2.78,82.39249767769658,10kmh,low
719,1,3,stance,0.04271486305732378,0.09110459218937178,-1.4281319230075447,0.7867210470493251,0.35878228721256733,-1.6967659522789336,0.63468027228021,0.17997082823212485,-1.5082377283708235,1.3462455175733115,0.06160556129544686,-0.16179912054649662,2.03418280781202,2.78,82.39249767769658,10kmh,low
720,1,3,stance,0.046986349363056165,0.20459963170061402,-0.7868955321081978,0.10364560466606826,0.6782692897575496,-0.822380288778141,1.9305911580694608,0.4963178144395988,-0.6290527243728804,-0.00488024906484652,0.08866770953606623,-0.18700441634382212,2.2015440717880934,2.78,82.39249767769658,10kmh,low
721,1,3,stance,0.05125783566878854,0.31967630360361926,-1.588428760610323,0.6377235162478864,0.2865557458448915,-1.6360985154620507,0.299764764888959,0.33083126027751764,-2.3939485864363395,0.6700802071033483,0.07570005317338994,-0.21199007858398258,1.9874487613649328,2.78,82.39249767769658,10kmh,low
722,1,3,stance,0.055529321974520915,0.6398976269844969,-0.9671175902488585,0.4010835318936935,0.6226405382051878,-0.8255579284984049,0.20186310171322108,0.9278551632923712,-1.254281716531914,-0.12840018043124513,0.12696569751066256,-0.23571764237357673,1.5427362337998245,2.78,82.39249767769658,10kmh,low
723,1,3,stance,0.0598008082802533,0.3531653026061007,-1.3369558537492352,1.9385935895184923,0.6430134648718836,-2.830397641859744,-1.0941737189104894,-0.015669183331053105,-1.6800829785563673,-0.005431687125096785,0.06858338987311241,-0.25709117058611464,1.105735636249101,2.78,82.39249767769658,10kmh,low
724,1,3,stance,0.06407229458598568,0.5448270703096254,-1.112157458929729,1.9805542934711482,0.7633752403624449,-2.436929975277684,1.6846632376069777,0.5947950459051063,-3.016557213011345,0.8432748813528049,0.12731570524454514,-0.2750433981722733,0.8286751460623627,2.78,82.39249767769658,10kmh,low
725,1,3,stance,0.06834378089171805,0.39635340423343696,-1.6521672217925538,0.781884538269928,0.4475231590052125,-2.2488039030550895,-0.42977295302213053,1.0457782309250336,-0.909726171880259,-0.33189961622378145,0.09625439506062426,-0.2886242764271821,0.7269445175398757,2.78,82.39249767769658,10kmh,low
726,1,3,stance,0.07261526719745043,0.32324109695258074,-1.045274801130841,1.3899672211627303,0.564367492728618,-1.7628241306139514,-0.025512523433516496,0.4931083363983711,-2.3633873221803916,-0.15623255564744554,0.10560118366613887,-0.2970839295907758,0.7423191013597199,2.78,82.39249767769658,10kmh,low
727,1,3,stance,0.0768867535031828,0.3607064168347854,-1.710560832561609,1.0900763506914333,0.9758641541828477,-2.1541987465279098,-0.6813201948880914,1.1119829557792236,-2.7926754439068184,-1.219060734402365,0.11666315512647334,-0.2999405495449799,0.8152301162579473,2.78,82.39249767769658,10kmh,low
728,1,3,stance,0.08115823980891519,0.37113226316438314,-1.5046576882353973,1.8813626044478515,0.440268995351201,-2.175813793355153,0.5381334719385831,0.6863630095496379,-3.034593767837537,0.15700219298447596,0.08701448385788609,-0.29702474139214174,0.9114192901312785,2.78,82.39249767769658,10kmh,low
729,1,3,stance,0.08542972611464757,0.48246204020828914,-1.567260467676431,2.0053024315891537,0.7655496241607858,-2.8277367672697142,-0.17456961282196184,0.3426464284142623,-2.374113884822478,0.07395064283255669,0.11576574298257271,-0.28849450445879726,1.016623819570549,2.78,82.39249767769658,10kmh,low
730,1,3,stance,0.08970121242037994,0.5905797565580299,-1.723702618047287,2.365354043692664,0.2952041293652303,-2.7352483567600427,-0.7202652121990998,0.4502794905975076,-2.220481094340287,-0.28837198189925933,0.0424417055181966,-0.2748187637799831,1.1256001960307727,2.78,82.39249767769658,10kmh,low
731,1,3,stance,0.09397269872611233,0.42789135476987183,-1.2165597125136436,2.3631823544607555,0.06706633869326573,-1.8535762767760096,0.7849216455205023,0.5169867346476271,-1.9635058426511298,0.3119139991191011,0.0795694714134033,-0.2567314738686241,1.2358313433093628,2.78,82.39249767769658,10kmh,low
732,1,3,stance,0.0982441850318447,0.5387507781048069,-0.7320589169789469,3.925004623352928,0.12766917005322959,-2.5276050762356794,-0.39877929693800906,0.38158400733417397,-1.9944501574384805,0.8117393820472456,0.07214952255666363,-0.23516208961856527,1.3453017510310492,2.78,82.39249767769658,10kmh,low
733,1,3,stance,0.10251567133757708,0.2000305200186045,-0.4494012806559521,2.217593667213337,0.5066126013512324,-1.9230520245433942,0.28366873909047874,0.4837824023323428,-1.3405004943411831,0.30057192139508915,0.06153242013096575,-0.21115101292032748,1.451970113960358,2.78,82.39249767769658,10kmh,low
734,1,3,stance,0.10678715764330945,0.26403047117789485,-1.0144912756771063,2.155278042375654,0.3487324710632438,-1.207386224444995,-0.4338930961370171,0.6516481827431161,-1.651659805319547,0.039076831831208914,0.07761610766731006,-0.18576005211364982,1.553718500589908,2.78,82.39249767769658,10kmh,low
735,1,3,stance,0.11105864394904183,0.1965792712895516,-0.673396539714405,3.0877740336503923,0.8432028475399647,-1.746746577875831,0.3015068387530402,0.755919575213515,-2.2230665003576786,2.723656247416357,0.08431944367552936,-0.15998782387072413,1.648403870630782,2.78,82.39249767769658,10kmh,low
736,1,3,stance,0.11533013025477422,0.3290350142727168,-0.8005271068131317,2.7585904862503288,0.8237753268973292,-0.254436014970284,1.706743374709197,0.8766367627216938,-1.1317947439760079,1.0978919688861342,0.08476387808864033,-0.13469852142599228,1.7339299141993798,2.78,82.39249767769658,10kmh,low
737,1,3,stance,0.1196016165605066,0.20245948333368055,-0.6330709667498817,3.029273737867218,0.6542764319945091,-0.2557847719378018,0.2764723906345392,0.576518243600239,-2.051491770743386,1.6773043418215658,0.06909629611266198,-0.11056994700009516,1.8083232978473094,2.78,82.39249767769658,10kmh,low
738,1,3,stance,0.12387310286623897,0.3381722056322309,-0.7368506184646272,3.473256303132529,0.7573915452019331,-1.4768337675031757,0.7848751289675606,-0.04145992382280683,-0.5142384528883309,2.653864223699083,0.04404377433723368,-0.08806368098038043,1.8698089785808287,2.78,82.39249767769658,10kmh,low
739,1,3,stance,0.12814458917197136,0.059625621407453505,-0.491309176304574,3.6685760915414902,0.37325838563511293,-0.9952764575893165,2.0052528303770627,0.2756193531581109,-1.0187409511396406,4.653820908154532,0.057380328756503375,-0.06741728287440406,1.916880453631409,2.78,82.39249767769658,10kmh,low
740,1,3,stance,0.13241607547770373,0.17467938577808376,-0.2906026677668829,3.7586061682788174,0.46950183914411425,-1.524740534503947,1.6738732690773848,1.0430434414853098,-0.30017173479857184,1.148213603730525,0.04474754007108701,-0.048655952122384306,1.9483610627480226,2.78,82.39249767769658,10kmh,low
741,1,3,stance,0.1366875617834361,0.23880995361773805,-0.45141253490370525,4.546364119464468,0.21732294237706154,-0.6394448983422145,3.612284176194235,0.5445459516215012,0.4088882736941542,2.455627109519636,0.05292313769128721,-0.031619421135085105,1.9634528625827885,2.78,82.39249767769658,10kmh,low
742,1,3,stance,0.14095904808916848,-0.20759902799845598,-0.20564905621855128,4.026790688600318,0.897528003269697,0.2576331959221977,3.4923052663868717,0.8767573502553903,-0.5999353899980021,1.5862186428980105,0.041420638568882485,-0.015999113451070593,1.961770239613924,2.78,82.39249767769658,10kmh,low
743,1,3,stance,0.14523053439490086,0.38599256884933264,-0.07866398244965296,4.121894347802064,0.6193382474007454,-0.2177831931535685,1.4271941261182173,0.4722883548415368,0.5197924072399189,1.6740432447490494,0.017974346045105647,-0.0013806985239729946,1.9433562849672612,2.78,82.39249767769658,10kmh,low
744,1,3,stance,0.14950202070063323,-0.009737959419875729,0.26586405805064517,4.529162428509984,-0.06040877069192183,0.3301631987847695,2.421341874129639,-0.0029283614324326773,-0.11693020636629084,1.4633296445719353,-0.009229485848459272,0.012712102061262201,1.9086809604131174,2.78,82.39249767769658,10kmh,low
745,1,3,stance,0.1537735070063656,-0.3062945385429552,-0.08338768626942322,3.508990881282073,0.006970383074320768,-0.5510327532692154,2.4571038962136953,-0.014324406956697927,1.0867318069044494,1.0509007527036678,-0.013059003116641517,0.026775535916368068,1.8586211645080135,2.78,82.39249767769658,10kmh,low
746,1,3,stance,0.158044993312098,-0.014064853573172865,0.29407550156033335,3.5122671360753515,0.2044664806436972,0.7230128723540153,1.3078427129908663,-0.14450292916671567,0.141448938463956,1.724983335170673,-0.019711361467526466,0.041287620420879544,1.7944238792425702,2.78,82.39249767769658,10kmh,low
747,1,3,stance,0.16231647961783038,-0.06769384634687658,0.9082179493384055,3.525999037838922,-0.1993277581074665,0.16722853472132065,0.4676847279562508,-0.5969940358655647,0.024536655932149876,0.48346386504372707,-0.02367014444501817,0.05667471313525682,1.7176545593397248,2.78,82.39249767769658,10kmh,low
748,1,3,stance,0.16658796592356276,-0.1193566103667887,0.8432957353606569,2.022171518195127,-0.30507301024665023,0.581211295089779,1.3899695301650863,-0.13640517942966796,0.9187456791459706,2.1092990420300324,-0.020520895958456974,0.0732831873022842,1.6301337455039413,2.78,82.39249767769658,10kmh,low
749,1,3,stance,0.17085945222929513,0.0080648295424392,1.0097851527862045,1.40761237883797,0.08185425607017177,0.670526527466451,1.0601008858350638,0.16602545645400044,0.49906891335115944,1.230987343970678,-0.019898526530005657,0.09135624084645483,1.5338654813426766,2.78,82.39249767769658,10kmh,low
750,1,3,stance,0.1751309385350275,-0.060967539552478994,0.796219568431424,2.3442476782464006,-0.2776227901151527,0.2354782571305004,0.6385787314823705,-0.4471426003413711,0.4505277605121381,1.2822283338864149,-0.04328420003437748,0.11101586615400642,1.4309614531695716,2.78,82.39249767769658,10kmh,low
751,1,3,stance,0.17940242484075988,-0.15955132294277077,0.9845805953498032,1.9595673293903557,-0.29538680921843347,0.46135747496409263,1.0624410541182385,-0.23814717186429618,0.7989797154820882,0.3810619440352075,-0.049677504241990474,0.13225020907670537,1.3235648370613196,2.78,82.39249767769658,10kmh,low
752,1,3,stance,0.18367391114649226,-0.16628942446701842,1.2648150390984005,2.266782300788488,-0.5827610866805536,1.6996059274628603,-0.07296134746169741,-0.16129548944026287,1.1934054268696466,0.21468290713369043,-0.05449151753510444,0.1549068161265478,1.2137776363118715,2.78,82.39249767769658,10kmh,low
753,1,3,stance,0.18794539745222466,-0.27724250394063393,1.5089832603775464,0.8211035597139726,-0.9416747243681902,1.6018746371323196,-0.6161918903509046,-0.73967679710546,2.073468624003899,0.46347919920894876,-0.07459686723130057,0.1786924768579857,1.103594854268031,2.78,82.39249767769658,10kmh,low
754,1,3,stance,0.19221688375795704,-0.021019236949736897,0.729394732038654,0.6529430284521258,-0.5536279968357067,2.1195843656143483,0.08962984882854813,-0.7254893153913982,0.6275159721078463,-0.8652203532381949,-0.08921852327151333,0.20318040836361298,0.9948482195901807,2.78,82.39249767769658,10kmh,low
755,1,3,stance,0.1964883700636894,-0.5327669846236587,0.979459994089537,-0.3530063515638186,-0.5408940495328889,1.9503023731031341,0.06315157825636189,-1.0216124325257288,1.7995135848270853,-0.49481881698029695,-0.11171320225810964,0.22782533834758856,0.8891614227593871,2.78,82.39249767769658,10kmh,low
756,1,3,stance,0.20075985636942179,-0.31113257008921746,1.7182804592680876,-0.597866381418481,-0.7144352089204691,2.0490862436535036,-1.334025955102865,-0.8635249233238103,2.2900427235759166,-1.0962523825866657,-0.09581819159042648,0.2519866113976676,0.787917999799553,2.78,82.39249767769658,10kmh,low
757,1,3,stance,0.20503134267515416,-0.3410747773742555,1.3948176793403582,-0.39107638482256946,-0.17061046833696475,1.2948714269338981,0.03079846026135913,-0.8516191691399467,2.2546010237631795,-1.3331961059252126,-0.07713963131304523,0.27495880941224277,0.6922421771748098,2.78,82.39249767769658,10kmh,low
758,1,3,stance,0.20930282898088653,-0.24508764276182549,1.3587564895192088,-2.746827307970622,-0.8948784956110711,2.187892328549442,-2.1933522153907385,-0.9440115296016918,2.978008261646794,-2.447870042527911,-0.10468900746427627,0.29600862346203194,0.6029922301610073,2.78,82.39249767769658,10kmh,low
759,1,3,stance,0.2135743152866189,-0.507390089942474,1.264418304144909,-1.915739622784875,-0.9416234549500999,2.453844220070048,-1.4843232597572456,-0.3230834210091601,2.430363715392658,-0.04624322361051325,-0.09872540282636084,0.3144159505953007,0.520765254511708,2.78,82.39249767769658,10kmh,low
760,1,3,stance,0.21784580159235128,-0.6535833601196834,1.478331628049585,-1.4665881280627968,-0.6160491686773318,3.5625993689622018,-1.4135739596799968,-0.8281108491508722,2.493770048732942,-1.7349716223971168,-0.08726395687757378,0.32951653540085557,0.44591174289964874,2.78,82.39249767769658,10kmh,low
761,1,3,stance,0.22211728789808366,-0.37725072297491985,1.2928714766723097,-2.7766823602837376,-0.6254041323059493,3.0176297237614405,-1.8501953190769487,-0.5731411837029541,2.9703161812187737,-0.5004954932153388,-0.0880669853601466,0.34074304379613934,0.37855801294338987,2.78,82.39249767769658,10kmh,low
762,1,3,stance,0.22638877420381606,-0.36490572484850337,2.179456323817763,-2.4454023062251085,-0.6398577579106911,3.496476709065439,-1.9334010645570066,-0.9580671291622357,2.7781030256863497,-0.708011468347893,-0.12121012680129559,0.34766133004723176,0.3186343568237794,2.78,82.39249767769658,10kmh,low
763,1,3,stance,0.23066026050954844,-0.18761562049190408,1.6509424738829206,-3.9069186028555367,-0.7435045725852589,3.0455600732535775,-0.2268630579611275,-0.25504738231002805,2.5515868511659776,-2.594668699579583,-0.08005881266481182,0.34999888128264695,0.26590676395522195,2.78,82.39249767769658,10kmh,low
764,1,3,stance,0.2349317468152808,-0.6033206006731603,1.6286262033785104,-3.898271527887522,-0.18723307304910997,2.372807546497547,-2.3735603283379874,-0.20146605810193036,2.9865311797654766,-2.551705688313448,-0.07707246719860703,0.34766299184152477,0.22001018712635256,2.78,82.39249767769658,10kmh,low
765,1,3,stance,0.2392032331210132,-0.2391281041253378,1.7636762127434988,-4.124047499098223,-0.3397118003385304,2.7327451780790732,0.004699944555209168,-0.6154235454308571,2.347918923395825,0.09416087221803648,-0.12107776918095149,0.3407470782370218,0.1804815502787274,2.78,82.39249767769658,10kmh,low
766,1,3,stance,0.24347471942674556,-0.05476492019705892,1.8182979001028436,-5.477662511520957,-0.786232939148995,2.704220854668718,-1.575886019887439,-0.6999132941312206,2.2805204555269376,-0.5905366482403702,-0.11306930718026934,0.3295245962712285,0.14679099943338603,2.78,82.39249767769658,10kmh,low
767,1,3,stance,0.24774620573247794,-0.4622164110420845,1.7635149280387383,-5.151838589308186,-0.16927457918337346,1.9980777472328044,-1.9001224463724122,-0.5394670684396777,2.2036585212353383,-1.9928026843524842,-0.0701473983150507,0.31443113304257714,0.1183702422399991,2.78,82.39249767769658,10kmh,low
768,1,3,stance,0.25201769203821034,-0.5931733241626654,1.7340404898600512,-5.287596107847144,-0.906653356905393,2.1310988546566785,-1.6666179707754472,-0.9404977652968904,2.9998271230363427,-1.8307684060031846,-0.09356765534426649,0.2960362567473419,0.09463717046163445,2.78,82.39249767769658,10kmh,low
769,1,3,stance,0.2562891783439427,-0.45305641924445933,1.2369567280441103,-4.474040788638506,-0.6307534633168217,2.0553745469314766,-0.17148551908373122,-0.41367662833175134,0.547749865777206,-2.542066133233087,-0.13099735672233884,0.275007395995166,0.07501627307131949,2.78,82.39249767769658,10kmh,low
770,1,3,stance,0.2605606646496751,-0.38110408465693185,1.241023800481713,-4.571592585029187,-0.49290552106012936,2.7810392544271956,-2.851027264972977,-0.9446428776381334,2.1760287555261075,-1.7815679763741359,-0.10990601764962794,0.252067958479184,0.0589545638160664,2.78,82.39249767769658,10kmh,low
771,1,3,stance,0.26483215095540746,-0.28880883401701146,1.4218449343368613,-4.9472139849005945,-0.3443592853382237,0.7485804860262986,-2.9760241593646524,-0.39430701862748296,1.8060866558218989,-2.673597145704214,-0.08158127353803603,0.22794989152927977,0.04593272980834926,2.78,82.39249767769658,10kmh,low
772,1,3,stance,0.26910363726113984,-0.4515379938332928,1.0066984214815855,-4.78004195663503,-0.6489248636004503,2.1986673392183884,-2.725837921375077,-0.3801426982270275,0.7553228992413067,-3.6839535971699244,-0.09393244377208051,0.20333309491085205,0.03547059053795989,2.78,82.39249767769658,10kmh,low
773,1,3,stance,0.2733751235668722,-0.11860870469147697,1.042747322801092,-5.340638236504021,-1.2357672067194854,0.9343389412601257,-2.15467319484344,-0.63602509563531,1.5575999483078182,-3.1699473949501487,-0.07240497617722115,0.17873809362128146,0.027123726117957495,2.78,82.39249767769658,10kmh,low
774,1,3,stance,0.2776466098726046,-0.5080790439147348,1.0474071030885137,-4.709915385210109,-0.5463846496761114,0.524574123160301,-3.488209001450907,-0.12644973193408854,1.448489712710874,-2.1780610969535363,-0.05620399938300264,0.15425760917368858,0.02046185981617979,2.78,82.39249767769658,10kmh,low
775,1,3,stance,0.28191809617833696,-0.5910836699551039,1.0476181796672759,-5.346776115064399,-0.2871761991710282,1.600908454014212,-2.1889948771971772,0.06035610608483616,1.30575700467368,-3.0540497333130743,-0.019032648135995,0.12881465201261214,0.015008056381709902,2.78,82.39249767769658,10kmh,low
776,1,3,stance,0.28618958248406934,-0.15411030615392865,0.31209395476984686,-5.35247575074773,-0.5383435907899182,1.140684775813546,-0.9448531769934869,0.13821110257064245,-0.5511782903261188,-2.265471625738892,-0.04278139744791013,0.09871760208924002,0.010151000825881025,2.78,82.39249767769658,10kmh,low
777,1,3,stance,0.2904610687898017,-0.652106719288102,0.843586255782128,-5.536199057044051,0.02862473995862638,1.096881450871584,-2.108627125036063,-0.11927262778481797,1.1528168056082082,-3.0281784475792937,-0.0002819296895500472,0.059839717084733575,0.005456991450330841,2.78,82.39249767769658,10kmh,low
778,1,3,stance,0.2947325550955341,-0.3334236832432522,0.5195336026118398,-5.076562823810251,0.037643091278159235,0.5847188026971277,-2.447203585248302,-0.17908205166146082,-0.18450052341808112,-2.8144549328933395,0.02073452055606057,0.023492332941429574,0.0019091223580774196,2.78,82.39249767769658,10kmh,low
779,1,3,stance,0.29900404140126646,0.17173665465599658,0.6738710812130301,-5.639619845289302,-0.020823728255931012,1.0782694601313594,-2.695565683307019,0.05895683532419668,0.39163083263924636,-1.5920713669844049,0.026988390008056577,0.006160417846923844,0.00044828691274705876,2.78,82.39249767769658,10kmh,low
780,1,3,stance,0.30327552770699884,-0.2920735281336279,0.6173144462268206,-4.947166604471898,-0.22716654096856323,0.28979213779669083,-1.561492051275328,0.08974688172697465,0.38096710966559116,-2.049765418958923,0.005465777791377854,0.0013290289659082788,8.701878361308946e-05,2.78,82.39249767769658,10kmh,low
781,1,3,stance,0.30754701401273127,-0.4538852220662991,0.7589606701944909,-6.005054147931036,-0.4485163779355119,-0.07613994706529333,-2.8577854463464956,-0.2550849497929406,-0.43624980181336054,-2.24565918240297,-0.03926578295677949,0.00026742367434835876,1.5830895565326663e-05,2.78,82.39249767769658,10kmh,low
947,1,4,stance,0.0,0.11245734808550553,-0.04978725411208739,-4.023658777578015,-0.1805055705680236,-0.8384825674952292,-3.0052129118081723,-0.4501147136837906,0.5365725524317836,-1.3115746171295255,-0.036297676589628125,-8.821899632798114e-05,0.00014613280300554665,2.78,82.39249767769658,10kmh,low
948,1,4,stance,0.004254384360767952,-0.29315390684013604,0.01674958899521206,-4.405163875421927,-0.33103329561660055,-0.4066797537386118,-3.4766269298249757,0.18479826122880028,0.10921502349719221,-1.2888209521286325,0.00611507334640169,-0.00043575911191783055,0.0006807726170442517,2.78,82.39249767769658,10kmh,low
949,1,4,stance,0.008508768721535904,-0.13265421777281128,-0.5117798199842075,-4.208670684432516,0.3516592639330532,0.8227142046336137,-2.6510302523353064,0.3755183947531315,0.2874950247537692,-1.983339139408104,0.004056719930922115,-0.002024216405381558,0.0030306014727311172,2.78,82.39249767769658,10kmh,low
950,1,4,stance,0.012763153082303856,-0.08275597961858985,-0.03319995200449377,-2.8996989145370278,-0.057554584852476734,-0.2808075992399325,-2.093245848302605,0.1004643559683946,0.6421079349515321,-2.8945257999501566,-0.0024812959579540933,-0.00805787783625322,0.01196472129897381,2.78,82.39249767769658,10kmh,low
951,1,4,stance,0.017017537443071808,0.22253369811187643,-0.4915146051516512,-2.1477546814171005,0.19198134891724922,-0.8391346823069588,-1.2260099295851434,-0.08096750490758112,-0.3365507560080391,-2.6475629857779754,-0.015554536764322837,-0.02315180302048328,0.03695147356936039,2.78,82.39249767769658,10kmh,low
952,1,4,stance,0.021271921803839758,0.056275267160552346,-0.17211771474237864,-2.5914919119989523,0.1671827064245195,-0.2373474235962887,-1.2815875568433754,0.04062619018280772,-0.6341265575732609,-1.342638901704996,0.04182850079476036,-0.0442002044935172,0.08782697590792922,2.78,82.39249767769658,10kmh,low
953,1,4,stance,0.02552630616460771,-0.033716657847500234,-0.7103292865136335,-1.7906801844914755,0.546182624231172,-0.7424236259463628,0.16588908802967994,0.6081762440870367,-0.06887621203968497,-1.4150646232286408,0.06974951618332956,-0.06431288287959884,0.18704482284634388,2.78,82.39249767769658,10kmh,low
954,1,4,stance,0.029780690525375665,0.22526116600695478,-0.9243336746636177,-1.91029375670177,0.4556665740970195,-1.0711841769479342,-1.3682163867919477,0.942416767695672,-0.39849226717393826,-0.8473330438641081,0.05873443421630221,-0.08323764642441146,0.3834588225130215,2.78,82.39249767769658,10kmh,low
955,1,4,stance,0.034035074886143615,0.11778769090283145,-0.8722749934571119,-0.9632279170857543,0.28756168855528286,-1.3540038724348655,0.5513772047780251,0.20364906210924072,-0.8997336219461572,0.6570554020299527,0.04351575914635414,-0.10271004931645092,0.7276046623836947,2.78,82.39249767769658,10kmh,low
956,1,4,stance,0.038289459246911565,0.02958872586848285,-0.8699217761685711,-0.5019102786633577,0.35756711381785417,0.41467872606102696,0.39317283427517874,0.3717360973290356,-0.27377909327397354,0.9075832649955511,0.0678217550847535,-0.12353568765952404,1.2169379964850275,2.78,82.39249767769658,10kmh,low
957,1,4,stance,0.042543843607679516,0.11164314856897464,-1.028866275135262,0.11952008796659028,0.4105209696912275,-1.2696068075278677,1.2738051812391706,0.1721346823283481,-1.249953012355765,1.7864103485234417,0.04549395151792594,-0.14574807051934244,1.7450463290353004,2.78,82.39249767769658,10kmh,low
958,1,4,stance,0.04679822796844747,0.535359740848694,-1.0673929758414622,0.5500984578184719,0.4505934017829205,-2.288838017239013,0.6963436957323992,0.5597806590301175,-1.3096675182946838,0.28076242564861364,0.09933511251692481,-0.16896716833238712,2.1212312120050885,2.78,82.39249767769658,10kmh,low
959,1,4,stance,0.05105261232921542,0.3598188175430991,-1.00635727630417,0.939279133592865,0.2788627229917692,-0.764468732943603,1.9422832733867201,-0.10510333318656229,-1.5007122870292409,0.8811293164537439,0.08463980708191844,-0.19257436448093398,2.1848312607566314,2.78,82.39249767769658,10kmh,low
960,1,4,stance,0.05530699668998337,0.3424138616291938,-1.2026745109393984,0.9742696833957849,0.6671779674209817,-1.3880485078244247,1.3174367116734573,0.45773009055320296,-2.1608809078289455,1.6652544145096098,0.05191076803397042,-0.21579816008915773,1.9272758308715585,2.78,82.39249767769658,10kmh,low
961,1,4,stance,0.05956138105075133,0.3098691296171533,-1.2388076213767634,0.37757556677891746,0.7651404945945599,-2.2492872830839787,0.4167406578842465,0.3719604532828813,-1.8272613728308893,1.2623831523322275,0.08494954090163606,-0.23777447344216165,1.499399392070615,2.78,82.39249767769658,10kmh,low
962,1,4,stance,0.06381576541151927,0.40924430206805684,-1.7032161050043113,0.5908136165273026,0.7259200239668399,-2.488244971398281,0.6719149160548517,0.30688134211832985,-1.3233053383559645,1.830218224680459,0.10331252684087373,-0.25760517673996053,1.096181509649976,2.78,82.39249767769658,10kmh,low
963,1,4,stance,0.06807014977228723,0.4224321528719475,-1.2218141177131183,0.8351493187886003,1.0332378904711805,-1.8169131361347535,0.23777018077935178,0.8052497822683725,-1.931165376525781,0.7328396044102283,0.08984306026434181,-0.274420175103704,0.8359372613604724,2.78,82.39249767769658,10kmh,low
964,1,4,stance,0.07232453413305519,0.4360684769417049,-1.3751818180400006,1.0079864496753015,0.5703256341923867,-2.3792946153701156,0.5525079445460453,0.3667625676131138,-2.240303738425922,1.5717060096468645,0.09280137088591785,-0.2874408067820321,0.7308752438895444,2.78,82.39249767769658,10kmh,low
965,1,4,stance,0.07657891849382313,0.41817594469617336,-0.9720553389715314,1.7258404734761985,0.8456472980552705,-3.2863059149803187,-0.8654230869979344,0.4303042295870862,-2.4042006463406023,0.4244228263253027,0.07499220810514426,-0.2960393738223455,0.7343489363472377,2.78,82.39249767769658,10kmh,low
966,1,4,stance,0.08083330285459109,0.5368367851799574,-1.6193682840390191,0.6945712131560323,0.8082593755268725,-1.4591227350078944,-0.08678724183896289,1.130976452092562,-2.187309203107053,0.7318521204393033,0.11131001227543574,-0.29978882738407603,0.7952529807513794,2.78,82.39249767769658,10kmh,low
967,1,4,stance,0.08508768721535903,0.4124272541315801,-1.834216393246253,1.2059830807697343,0.3401659625387636,-2.559601100217789,0.2313069892113952,0.24404970055173275,-1.967722554865218,-0.3078096603639458,0.08684340324127875,-0.29849718005986375,0.8813538368554683,2.78,82.39249767769658,10kmh,low
968,1,4,stance,0.08934207157612699,0.2616198844779883,-1.2130524994912542,2.0072133113422232,0.845554223860133,-1.5455779466933492,0.034626004981671135,0.00039461726798001306,-1.9887443994896858,0.020573933499888016,0.05585323662697255,-0.2922227083249952,0.9777539892849823,2.78,82.39249767769658,10kmh,low
969,1,4,stance,0.09359645593689495,0.31273108408987704,-1.2542956318107525,1.5645437745218536,0.8661722216246107,-1.568174784495733,1.1565548893206872,0.685821057359174,-2.3733246943895803,0.8295572589085467,0.09006764379912473,-0.28126812735456047,1.078619237630586,2.78,82.39249767769658,10kmh,low
970,1,4,stance,0.09785084029766289,0.10098514590425833,-1.55470495637844,2.163376359532166,0.759296155734486,-2.589283910205074,0.9087197485119469,1.0769232544894691,-1.9263883409086096,1.5379362959034484,0.1149776341177919,-0.2661543244092338,1.1814027901715343,2.78,82.39249767769658,10kmh,low
971,1,4,stance,0.10210522465843085,0.6920957934552829,-1.6355848869385088,2.1116009063060437,0.7644119624720578,-1.426385902063773,0.5339354467869223,0.18903371815557973,-1.7030109636712076,1.0864737563255469,0.08484333006969134,-0.24757655889976388,1.2843815946892272,2.78,82.39249767769658,10kmh,low
972,1,4,stance,0.1063596090191988,0.5047707820287068,-0.8089603470775533,2.580179657857837,0.7502578852121164,-2.1020998650704295,0.9285860508139546,0.9531061779208874,-2.279976083902078,0.7036903987397352,0.1239527805026348,-0.22634793452326565,1.3859172614919602,2.78,82.39249767769658,10kmh,low
973,1,4,stance,0.11061399337996675,0.23527280716732538,-0.7704077359129378,2.621553874303827,0.851343438260085,-2.5291324639263006,1.217375786997815,0.7893060644856225,-1.5116668999324825,2.0286278955325714,0.09379003633248864,-0.20333615832369134,1.4843122976969674,2.78,82.39249767769658,10kmh,low
974,1,4,stance,0.1148683777407347,0.2992061054913296,-1.6678272454856797,3.357492886489548,0.0026559400999592864,-1.620230140796759,1.5208236846106278,0.08563546049786908,-2.4885830009368686,-0.4256350107244009,0.0874363741693533,-0.17939998187891024,1.5778211395899966,2.78,82.39249767769658,10kmh,low
975,1,4,stance,0.11912276210150266,0.2250926544716369,-1.0749321519559802,2.534032132394898,0.24638868144428389,-1.020221059727704,0.05723095194431882,0.7009643493447374,-0.977772955705251,0.3597985725626196,0.07300699211707184,-0.15533127046583123,1.6646952372052548,2.78,82.39249767769658,10kmh,low
976,1,4,stance,0.1233771464622706,0.528782380058944,-0.4521192353231798,3.3922904833338103,0.716028757062994,-1.2657935714355446,1.3879064431949641,0.6903652909517981,-0.7042537201560348,2.1252768327732663,0.06862004091906994,-0.13180749839925784,1.7432359911130235,2.78,82.39249767769658,10kmh,low
977,1,4,stance,0.12763153082303855,0.05903844906422784,-0.8893178458704074,3.9652091269659873,0.3404205160967001,-1.0117646015259028,0.6632837046584235,0.32488800733742373,-0.4844673681701223,1.7871942729933368,0.05866235629116499,-0.10935785309166056,1.8118494599679542,2.78,82.39249767769658,10kmh,low
978,1,4,stance,0.13188591518380652,0.26187339854071,-0.7903478662248902,4.293887259136731,0.4048840929445407,-0.12154325560668122,2.869598701990684,0.6660851097968572,-0.8908497041557715,2.3650232297391933,0.051405055951995814,-0.0883443269713287,1.869099916580755,2.78,82.39249767769658,10kmh,low
979,1,4,stance,0.13614029954457446,0.19939314198473956,-0.6318747138741919,4.943311970877802,0.08359885928800143,-0.48793116956429655,1.968929998624854,0.7044091683980713,-0.3866547421973251,2.0628727804510065,0.06120507861028981,-0.06895746173666444,1.9137597024596276,2.78,82.39249767769658,10kmh,low
980,1,4,stance,0.1403946839053424,0.30919069031685126,-0.7317499401138182,4.124513181459875,0.6313876514781169,-0.8236630282060027,1.9411339323389523,0.19520038398189243,0.309963050207057,2.5143489155515737,0.024671749315944548,-0.05122500924611702,1.9448529640785364,2.78,82.39249767769658,10kmh,low
981,1,4,stance,0.14464906826611038,0.13781615896940505,-0.7655730513008525,5.131376105718065,0.39639630647777535,0.07609320236810457,2.797384834304179,-0.014097452032877197,0.43196286468007067,1.5139847195343599,0.014382393410274679,-0.03503083071681431,1.9616910962285428,2.78,82.39249767769658,10kmh,low
982,1,4,stance,0.14890345262687832,-0.14307180249704474,0.03781839311009408,4.0785753296004525,-0.010965166098046764,-0.05922814782704919,2.4470640507848285,-0.2040008346499536,-0.17265228091745208,2.5581850172571903,0.005709354666635457,-0.020140918871581516,1.963898095035349,2.78,82.39249767769658,10kmh,low
983,1,4,stance,0.15315783698764626,0.04943718465458884,-0.5705723488235915,5.031561006788886,0.318893088317583,-1.3097225638462204,1.256672873096277,0.4106761751918668,0.020739652249581034,2.8489596550363707,0.06117184396875122,-0.006233456054434108,1.9514245171002895,2.78,82.39249767769658,10kmh,low
984,1,4,stance,0.15741222134841423,-0.09285754437125174,0.06844855616895881,4.677103206298664,0.4140805518678464,0.26966018084463383,1.9910759473559445,0.2991191914389679,0.610939296326126,2.9596679221998956,0.022816289720827613,0.007069791534009872,1.924549321039156,2.78,82.39249767769658,10kmh,low
985,1,4,stance,0.16166660570918218,0.030415640115945407,0.34534526681265,3.6554145421096496,0.565446093569474,0.3542308063602093,1.7038001340135505,-0.011215734232918315,-0.5920845551289289,3.465341084919864,0.010168702639761468,0.020172840532894816,1.883869495633145,2.78,82.39249767769658,10kmh,low
986,1,4,stance,0.16592099006995012,0.1990214366642885,-0.12180228756908287,4.054034551954659,0.06519147708624809,0.2727884130572158,0.5295683924814691,-0.7226238381820977,0.10118997692827353,2.0210418915627995,-0.025229152012027137,0.03347704488618575,1.8302780131359047,2.78,82.39249767769658,10kmh,low
987,1,4,stance,0.17017537443071806,-0.3114394496080228,0.1271058198096588,3.610996559851268,0.5447183310263461,0.8174974651739226,1.1774599734074118,0.31894613782133824,1.0394324024075132,1.9006004634706994,0.00025741432608062845,0.04735565426084798,1.7649312447468368,2.78,82.39249767769658,10kmh,low
988,1,4,stance,0.17442975879148603,-0.2045624807395118,0.7781057226924248,3.6374004422016903,-0.38571459794281343,0.15141302112494948,1.3920650631121663,-0.1075709602161105,0.9752100841305836,0.3873409564941297,-0.02259017994427464,0.062131729521941965,1.6892074985219552,2.78,82.39249767769658,10kmh,low
989,1,4,stance,0.17868414315225398,-0.2007689896838491,0.7236988730136906,2.8578967512967224,-0.3688984920326727,0.780860806003758,1.258697498175598,-0.2589579085771835,0.7972428004182598,0.9463521459406612,-0.023889876861507946,0.07805949434165488,1.6046587547727733,2.78,82.39249767769658,10kmh,low
990,1,4,stance,0.18293852751302192,-0.2075312281214279,0.5503395765664267,2.4234946254139005,-0.6778914676793838,-0.03549376032992291,0.03259258119217501,-0.16636659106022453,-0.004930277411556716,0.9994545934451969,-0.05543267630203097,0.09530911381928561,1.5129579556646977,2.78,82.39249767769658,10kmh,low
991,1,4,stance,0.1871929118737899,-0.07053791691121349,1.1173437875142862,2.8381490470056283,-0.1654964763619273,1.097863636144548,1.7952089978414718,0.10522301034639192,0.8693633279245511,1.7191994747631312,-0.040182996763404276,0.11395494959800358,1.4158443400387883,2.78,82.39249767769658,10kmh,low
992,1,4,stance,0.19144729623455783,-0.2374869537771918,1.2278018482097606,1.6561828313269042,-0.36169438946474336,2.0279066671769055,0.6336300061527752,-1.1060731692878087,0.7564191212819905,0.2519564572541325,-0.05906440613307645,0.13396748463391397,1.3150692984264825,2.78,82.39249767769658,10kmh,low
993,1,4,stance,0.19570168059532578,-0.17740998910491354,1.0993273327417274,1.652849494764655,-0.5376490147054912,0.7206541693822356,0.5123302208017234,-0.39109532135697683,1.3836017970246128,1.0814204281179254,-0.07276266693425,0.15520926931906295,1.2123450648028746,2.78,82.39249767769658,10kmh,low
994,1,4,stance,0.19995606495609375,-0.36021654922330343,0.908593004709477,0.6498706346941073,-0.13587618150815003,1.0126115499486574,0.5573183850808805,-0.6948531412415615,0.9878392735451048,0.25562086860346794,-0.04924870227741004,0.17743534861653223,1.1092982786990053,2.78,82.39249767769658,10kmh,low
995,1,4,stance,0.2042104493168617,-0.2565166806356419,1.1266055908049342,1.1140621300800122,-0.38369888788544515,1.2169359808928206,-0.5595699746087257,-0.5670034124893758,1.059082004851293,-0.1013888705170437,-0.10073992124495576,0.20029863689329722,1.0074300696682135,2.78,82.39249767769658,10kmh,low
996,1,4,stance,0.20846483367762964,-0.1969368012824143,1.3917060576499631,-0.538851680885851,-0.8228224628898613,1.817932982654215,0.1533380563870248,-0.40942505997450596,0.7205012309115966,-0.0022584466125550873,-0.06427943214914093,0.2233605848309655,0.9080838669978908,2.78,82.39249767769658,10kmh,low
997,1,4,stance,0.2127192180383976,-0.44388354001792796,1.3559211982342916,-0.9801039723303226,-0.6091362168064735,1.3999313862645475,-0.677125983631304,-0.30096157822105707,2.542351865179757,-0.6951872783072988,-0.06697148825268598,0.24610722766200388,0.8124216548027896,2.78,82.39249767769658,10kmh,low
998,1,4,stance,0.21697360239916555,-0.23499989454529432,1.712598993660432,-0.3719450126760677,-0.5009160853109883,2.3136548923981337,-1.277436118605989,-0.8307638874654171,1.903145947331115,-0.9267748991900945,-0.10280355087254309,0.2679703367804082,0.7214089098213815,2.78,82.39249767769658,10kmh,low
999,1,4,stance,0.2212279867599335,-0.36016459132753936,1.1610744076570043,-1.8011924661454388,-0.8420874676713069,2.6864139928345363,-0.36660815748136244,-1.1934628246614494,2.341566911951221,-2.0752832068404974,-0.10559965002281368,0.2883529587283325,0.6358080071206714,2.78,82.39249767769658,10kmh,low
1000,1,4,stance,0.22548237112070146,-0.22461857206280983,1.2255790343639716,-1.2022421578774314,-0.8659419039392732,2.6738269411752764,0.14318364858451627,-0.7789824326639017,2.4055342762112937,-1.1615374010127566,-0.09704243262701831,0.3066581720754822,0.5561794832817324,2.78,82.39249767769658,10kmh,low
1001,1,4,stance,0.2297367554814694,-0.4226518045784848,1.6891524627789547,-1.9573686371292862,-0.36143110149296426,1.6453556092752861,-0.5970868356657394,-0.5143535496206172,1.9958463556140726,-1.5006849753916582,-0.08971391559714038,0.32231948548602474,0.4828902267735184,2.78,82.39249767769658,10kmh,low
1002,1,4,stance,0.23399113984223735,-0.34385090584599687,1.5543200631461718,-2.8551869551613684,-1.012851119263222,3.1253375102724315,-0.5993431065014625,-0.43662801966342113,1.9982212219690318,-1.6785620223685953,-0.10054989104881709,0.3348309986866881,0.4161274330851389,2.78,82.39249767769658,10kmh,low
1003,1,4,stance,0.23824552420300532,-0.41336084103926374,1.5416694491761591,-4.031452120123264,-0.695559867660315,3.1666322683540598,-1.8184772416421604,-0.91312274083067,2.195290998228602,-1.115349489777906,-0.09031089496323559,0.34377530086993113,0.3559170222802586,2.78,82.39249767769658,10kmh,low
1004,1,4,stance,0.24249990856377326,-0.42561986501194354,1.2652465560094448,-3.452743555580051,-0.3611257780578008,3.1528328797621326,-2.7483553933199225,-0.18652167779074857,2.376167974174284,-1.0561666318506977,-0.0645531941909135,0.3488471194685245,0.3021451665173485,2.78,82.39249767769658,10kmh,low
1005,1,4,stance,0.2467542929245412,-0.3740117035715731,1.7084261164143473,-3.681461049926993,-0.8997419146821739,2.9322084584637884,-0.540800420184951,-0.9182550086162746,2.9290904576427783,-1.484257683278086,-0.1101335279167969,0.3498709651039597,0.25458160637628185,2.78,82.39249767769658,10kmh,low
1006,1,4,stance,0.2510086772853092,-0.3318055863256413,1.674134658682232,-3.4089007679220535,-0.722904795347012,2.8318707643369683,-0.21254680604312504,-0.8280812389516741,2.323917275474096,-1.0068715802595891,-0.1337838516601581,0.3468114305854233,0.21290353462230313,2.78,82.39249767769658,10kmh,low
1007,1,4,stance,0.2552630616460771,-0.5971417813845259,1.8222517849070992,-3.430176043001554,-0.7039454311621037,3.182751684825082,-0.6789357008272534,-0.6891996755791696,3.5398023015591944,-1.4043693367817411,-0.08180081365410827,0.33977535496456207,0.1767189783798782,2.78,82.39249767769658,10kmh,low
1008,1,4,stance,0.25951744600684507,-0.1900721901858696,1.6359258582142142,-4.771467583683559,-0.07935175788064674,3.543793481927431,-2.15900319826653,-0.3859639743141011,3.095612256072279,-2.1284558863859493,-0.06283772116530169,0.32900570057666967,0.145588798082367,2.78,82.39249767769658,10kmh,low
1009,1,4,stance,0.26377183036761304,-0.6776443803381366,1.5343143516999516,-4.207009078648816,-0.6233110597932126,1.9945610061122567,-2.8337953264724534,-0.3689050767767007,2.8752610126275355,-2.314961786711605,-0.08619112937516665,0.314867639882095,0.11904662602907831,2.78,82.39249767769658,10kmh,low
1010,1,4,stance,0.26802621472838095,-0.49329751425468926,1.8003128352007367,-4.379209361634355,-0.6062169829316049,2.8764162426290856,-2.8183296962718503,-1.0807880364300773,2.2775240934951246,-1.7844509953320402,-0.11271800161758312,0.2978279236406345,0.09661627054550803,2.78,82.39249767769658,10kmh,low
1011,1,4,stance,0.2722805990891489,-0.39504392025186386,1.1074302644016956,-4.357026626053628,-0.42981930327048223,2.1420021202774597,-3.324774524320266,-0.7863017657028941,2.942251037141428,-1.631649766183304,-0.0897517535337391,0.2784289843630461,0.07782629250867966,2.78,82.39249767769658,10kmh,low
1012,1,4,stance,0.2765349834499169,-0.3079941757729381,1.4912218991834771,-4.755678140983475,-0.880484070334891,1.9541336159021174,-2.178121800017197,-0.6773584228133511,1.9099673263558556,-1.049204605936039,-0.10537339007556033,0.2572591923950583,0.06222158703547608,2.78,82.39249767769658,10kmh,low
1013,1,4,stance,0.2807893678106848,-0.12118007523766228,0.8543383890832333,-6.069052214073988,-0.9619157568382042,1.0753839332781716,-0.9226486496775299,0.1518517955833561,1.8280185713920678,-1.233527334534299,-0.06531878836089006,0.2349196328324657,0.04937180603348996,2.78,82.39249767769658,10kmh,low
1014,1,4,stance,0.2850437521714528,-0.6231442428509995,0.9723847012464301,-5.251820365337461,-0.5954263581896742,1.5212552636970678,-2.2571170643985083,-0.9014127248973398,1.7486372383294,-2.556974845374703,-0.09984204119056836,0.2119839409346031,0.03887616472257476,2.78,82.39249767769658,10kmh,low
1015,1,4,stance,0.28929813653222075,-0.40662625348830794,0.7850049868626173,-5.81379535378635,-0.482760798549228,0.9841354704631976,-1.9435917753312104,0.009200586168784386,1.8336794697190772,-2.246838660687863,-0.07293328750989447,0.18893577337505166,0.030363136356471757,2.78,82.39249767769658,10kmh,low
1016,1,4,stance,0.29355252089298867,-0.635106217654315,1.187729047108685,-5.386530886398883,-0.4141940323576436,1.0711005063274097,-1.1543650110287058,-0.05204471333263272,1.6214817605818754,-1.6827993805685346,-0.08055199348353363,0.16603309391951868,0.02348066043509357,2.78,82.39249767769658,10kmh,low
1017,1,4,stance,0.29780690525375664,-0.2967627141322429,0.8793964363177539,-4.833788006977007,-0.40436501726295476,0.5728187330518051,-2.501788028749725,-0.372060936842643,0.8843492857185784,-1.3977182113311963,-0.0506382917092246,0.14295513824425074,0.01786610410816137,2.78,82.39249767769658,10kmh,low
1018,1,4,stance,0.3020612896145246,-0.2462812544555809,0.7968519423143327,-5.200744206456107,-0.46220753470067855,0.7012526073073335,-0.6821962162114263,-0.42913874155047466,0.6592099412508599,-1.5046177072225284,-0.05163835881760588,0.11795448534197715,0.013082484348830529,2.78,82.39249767769658,10kmh,low
1019,1,4,stance,0.3063156739752925,-0.034327928372299976,0.43050055870755705,-4.801316664925803,0.30389932107633977,0.47987213487123714,-0.7228180868670726,-0.37123523133525804,1.002878791958981,-2.2647972671136727,-0.028865433474455377,0.0870192805024132,0.008601380404865978,2.78,82.39249767769658,10kmh,low
1020,1,4,stance,0.3105700583360605,-0.24141490320088319,0.5431220669145418,-5.2204332327500795,-0.4857979861800797,0.4343424866536309,-2.3215368952056745,-0.13476010338555253,0.7435833193798471,-3.1637203805166996,-0.017141323838995963,0.049180049367256715,0.004350606062242594,2.78,82.39249767769658,10kmh,low
